sent.seconds;sent.microseconds;received.seconds;received.microseconds;sampleTimeStamp.seconds;sampleTimeStamp.microseconds;accelerationX;accelerationY;accelerationZ;
1584543153;31327;868;526083;1584543153;31327;-9.92636;0.1484405;-0.4596867;
1584543153;131225;868;623144;1584543153;131225;-9.873688;0.1771709;-0.3950433;
1584543153;163918;868;655911;1584543153;163918;-9.866505;0.1795651;-0.4141969;
1584543153;188379;868;680522;1584543153;188379;-9.904812;0.1364695;-0.4644751;
1584543153;210060;868;701935;1584543153;210060;-9.830592;0.1963245;-0.4548983;
1584543153;300920;868;792814;1584543153;300920;-9.89763;0.1388637;-0.4453215;
1584543153;386110;868;877991;1584543153;386110;-9.9096;0.1843535;-0.4596867;
1584543153;406777;868;898651;1584543153;406777;-9.847351;0.1268927;-0.4740519;
1584543153;506008;868;997891;1584543153;506008;-9.859323;0.1651999;-0.4285621;
1584543153;596383;869;88380;1584543153;596383;-9.911995;0.1723825;-0.4692635;
1584543153;616608;869;120323;1584543153;616608;-9.866505;0.1651999;-0.4572925;
1584543153;716281;869;208829;1584543153;716281;-9.914389;0.1292869;-0.4165911;
1584543153;811745;869;303735;1584543153;811745;-9.873688;0.1460463;-0.4908113;
1584543153;901997;869;393891;1584543153;901997;-9.837774;0.1604115;-0.3782839;
1584543153;931607;869;424322;1584543153;931607;-9.856928;0.1532289;-0.4860229;
1584543154;21626;869;523644;1584543154;21626;-9.859323;0.1197101;-0.3040636;
1584543154;112574;869;604664;1584543154;112574;-9.943119;-0.01915361;-0.4213795;
1584543154;137641;869;629854;1584543154;137641;-9.844957;0.1580173;-0.5219359;
1584543154;161473;869;653588;1584543154;161473;-9.80665;0.1364695;-0.4118027;
1584543154;182953;869;674943;1584543154;182953;-9.976639;0.1005565;-0.4333505;
1584543154;199601;869;692204;1584543154;199601;-9.787497;0.1268927;-0.296881;
1584543154;215949;869;708687;1584543154;215949;-9.794679;0.09097967;-0.3998317;
1584543154;243398;869;743204;1584543154;243398;-9.959879;0.1604115;-0.4501099;
1584543154;348542;869;843302;1584543154;348542;-9.868899;0.1244985;-0.4261679;
1584543154;368252;869;860548;1584543154;368252;-9.818621;0.1532289;-0.3758897;
1584543154;384548;869;876860;1584543154;384548;-9.947907;0.05985504;-0.3495534;
1584543154;400212;869;892852;1584543154;400212;-9.900023;0.1244985;-0.2920926;
1584543154;420409;869;912520;1584543154;420409;-9.823409;0.1628057;-0.4261679;
1584543154;514820;870;6653;1584543154;514820;-9.847351;0.1412579;-0.4333505;
1584543154;596596;870;88521;1584543154;596596;-9.871293;0.1412579;-0.4261679;
1584543154;613534;870;105729;1584543154;613534;-9.885658;0.1819593;-0.4548983;
1584543154;636754;870;128705;1584543154;636754;-9.854534;0.1556231;-0.4668693;
1584543154;722477;870;214371;1584543154;722477;-9.864111;0.1436521;-0.4429273;
1584543154;745970;870;238511;1584543154;745970;-9.89763;0.1508347;-0.3663129;
1584543154;774467;870;266441;1584543154;774467;-9.852139;0.1819593;-0.4118027;
1584543154;791287;870;283164;1584543154;791287;-10.05565;0.2035071;-0.2873042;
1584543154;806939;870;298831;1584543154;806939;-8.839393;0.5722142;-0.7254431;
1584543154;826458;870;318398;1584543154;826458;-9.514558;0.01915361;-0.01675941;
1584543154;918159;870;410363;1584543154;918159;-9.653421;-0.1197101;-0.4070143;
1584543154;945208;870;452841;1584543154;945208;-10.08917;0.3902549;-0.7661445;
1584543155;40181;870;532208;1584543155;40181;-10.10114;-0.3495534;-1.335965;
1584543155;74382;870;566298;1584543155;74382;-8.779537;0.1292869;0.5147533;
1584543155;150652;870;642592;1584543155;150652;-8.707711;0.237026;0.6703765;
1584543155;173004;870;665532;1584543155;173004;-12.29662;-1.87466;-1.233014;
1584543155;189917;870;681969;1584543155;189917;-6.710947;0.1149217;-0.4309563;
1584543155;207377;870;699341;1584543155;207377;-8.295909;-0.4261679;1.130063;
1584543155;224514;870;716870;1584543155;224514;-8.037335;0.5793968;-1.968034;
1584543155;251036;870;742961;1584543155;251036;-9.844957;0.7589619;1.345541;
1584543155;393528;870;885513;1584543155;393528;-10.17536;-2.044648;-3.337517;
1584543155;409658;870;901964;1584543155;409658;-10.35013;0.1484405;-0.5123591;
1584543155;425454;870;918895;1584543155;425454;-6.962338;-0.581791;-2.626439;
1584543155;452374;870;944548;1584543155;452374;-11.00136;-1.707066;2.147599;
1584543155;496427;870;988469;1584543155;496427;-11.81538;-1.951274;0.02394202;
1584543155;573646;871;82390;1584543155;573646;-15.02362;-0.4381389;-2.154782;
1584543155;670011;871;162073;1584543155;670011;-5.102044;2.06859;1.606509;
1584543155;696759;871;190445;1584543155;696759;-11.2719;1.951274;-2.779668;
1584543155;715411;871;208192;1584543155;715411;-12.34211;-1.149217;0.9552864;
1584543155;732181;871;224548;1584543155;732181;-5.44202;2.317587;2.597709;
1584543155;756758;871;248935;1584543155;756758;-10.49857;1.687912;-3.462016;
1584543155;780384;871;272559;1584543155;780384;-12.42591;-2.387019;0.7110779;
1584543155;863470;871;360562;1584543155;863470;-5.8634;1.575385;-0.5554548;
1584543155;888090;871;380081;1584543155;888090;-10.02931;0.5770026;-3.141193;
1584543155;909427;871;401610;1584543155;909427;-5.193023;0.9935937;0.1675941;
1584543155;925963;871;417859;1584543155;925963;-13.23993;-2.109292;-1.098939;
1584543155;954868;871;446929;1584543155;954868;-10.35732;-1.237802;-0.7038953;
1584543156;32898;871;525616;1584543156;32898;-10.93911;-1.549048;0.4453215;
1584543156;118285;871;610154;1584543156;118285;-5.559336;2.066196;1.127669;
1584543156;133164;871;625309;1584543156;133164;-12.39718;-4.043807;-2.262521;
1584543156;159861;871;652130;1584543156;159861;-8.300697;-0.07900865;1.446098;
1584543156;181493;871;673613;1584543156;181493;-10.8601;-2.066196;-0.6440402;
1584543156;199599;871;692416;1584543156;199599;-12.48337;2.300828;-3.986346;
1584543156;228983;871;721307;1584543156;228983;-9.270349;-1.319205;-1.101333;
1584543156;317161;871;809049;1584543156;317161;-4.050989;1.285686;1.886631;
1584543156;334483;871;826512;1584543156;334483;-10.62547;-1.45328;-0.01197101;
1584543156;413489;871;910023;1584543156;413489;-4.213795;3.002329;-4.572925;
1584543156;435046;871;927071;1584543156;435046;-6.53617;3.189077;1.831564;
1584543156;460905;871;953137;1584543156;460905;-12.94066;-1.850718;3.531447;
1584543156;563039;872;54954;1584543156;563039;-8.147469;0.6081272;1.197101;
1584543156;590640;872;82646;1584543156;590640;-14.76504;-5.233725;1.11091;
1584543156;606948;872;98829;1584543156;606948;-11.22162;-5.523423;-4.965574;
1584543156;631816;872;123973;1584543156;631816;-12.10269;-5.061342;1.51553;
1584543156;650544;872;142576;1584543156;650544;-12.81856;-4.395754;-5.394136;
1584543156;808246;872;300304;1584543156;808246;-10.04607;-1.458069;2.571373;
1584543156;828886;872;321041;1584543156;828886;-0.7469909;5.683835;4.752491;
1584543156;918528;872;410767;1584543156;918528;-27.85414;-7.596802;-0.4884171;
1584543156;939279;872;432234;1584543156;939279;1.235408;3.643975;4.620809;
1584543157;19670;872;512061;1584543157;19670;0.9337386;5.078102;5.808333;
1584543157;43462;872;538783;1584543157;43462;-6.861782;3.557784;-0.3375824;
1584543157;67680;872;559889;1584543157;67680;-8.528147;2.645593;-0.1795651;
1584543157;168828;872;660775;1584543157;168828;-20.67393;-7.053318;-7.680599;
1584543157;269352;872;761332;1584543157;269352;-15.32289;-3.37343;-4.491522;
1584543157;368839;872;860938;1584543157;368839;-6.70137;-1.364695;0.7757213;
1584543157;559439;873;51251;1584543157;559439;-2.628834;4.699818;0.2035071;
1584543157;603170;873;95035;1584543157;603170;-8.169016;4.118027;4.498705;
1584543157;679455;873;190783;1584543157;679455;-7.529764;-2.947262;-3.881001;
1584543157;779451;873;271374;1584543157;779451;-8.487445;-3.979163;-4.209006;
1584543157;879696;873;371730;1584543157;879696;-16.12016;-0.2920926;-0.6967127;
1584543157;979629;873;471666;1584543157;979629;-10.1562;-2.305616;-4.836287;
1584543158;79700;873;571756;1584543158;79700;-1.383849;2.303222;1.599327;
1584543158;184732;873;698383;1584543158;184732;-18.7035;-0.7709329;-2.331952;
1584543158;284845;873;798142;1584543158;284845;-13.62301;0.653617;-4.311957;
1584543158;384897;873;876993;1584543158;384897;-3.801992;3.694253;-2.454057;
1584543158;502239;873;997781;1584543158;502239;-13.09628;5.758055;-2.111686;
1584543158;585001;874;77015;1584543158;585001;-14.51604;0.2466028;-6.555324;
1584543158;685139;874;177167;1584543158;685139;-7.323863;-0.56982;-4.405331;
1584543158;785147;874;277238;1584543158;785147;-7.848193;1.584962;0.545878;
1584543158;879923;874;372077;1584543158;879923;-9.481039;3.639187;0.8810662;
1584543158;980388;874;472516;1584543158;980388;-14.19522;-6.392519;-4.086902;
1584543159;80173;874;572405;1584543159;80173;-5.90889;2.231396;2.379837;
1584543159;180453;874;672658;1584543159;180453;-13.21839;-3.627216;-4.357447;
1584543159;280315;874;772399;1584543159;280315;-14.36042;-0.7206547;3.119645;
1584543159;380627;874;872681;1584543159;380627;-5.614403;9.842563;3.045424;
1584543159;495041;874;987129;1584543159;495041;-12.51689;-3.663129;-1.520318;
1584543159;595923;875;88196;1584543159;595923;-19.21107;1.714248;-4.07972;
1584543159;696033;875;188287;1584543159;696033;-13.01488;-1.051054;1.273715;
1584543159;785927;875;283357;1584543159;785927;-11.88721;-2.956839;-6.821081;
1584543159;886018;875;388347;1584543159;886018;-20.29804;-4.187459;-3.900155;
1584543159;986206;875;486545;1584543159;986206;-7.235278;3.244143;2.276886;
1584543160;86091;875;588416;1584543160;86091;-15.99327;2.604891;-7.050924;
1584543160;196533;875;688597;1584543160;196533;-13.24951;3.05979;0.248997;
1584543160;286282;875;778229;1584543160;286282;-11.85848;0.2513912;-3.739743;
1584543160;381282;875;873352;1584543160;381282;-12.39718;-2.827552;-4.13718;
1584543160;401867;875;894538;1584543160;401867;-8.959103;1.414973;-1.505953;
1584543160;581648;876;73626;1584543160;581648;-3.847482;7.553706;-2.765303;
1584543160;610877;876;102977;1584543160;610877;-6.227318;0.593762;0.9050083;
1584543160;706235;876;198132;1584543160;706235;-17.5878;0.3471592;-3.428497;
1584543160;739821;876;232990;1584543160;739821;-11.01572;-0.2346318;-5.331887;
1584543160;762807;876;255751;1584543160;762807;-16.47929;-0.5386954;3.397372;
1584543160;788610;876;280854;1584543160;788610;-13.25191;-5.171475;-2.499547;
1584543160;881834;876;373763;1584543160;881834;-11.83933;-0.5051765;-2.834735;
1584543160;912288;876;404680;1584543160;912288;-11.65497;-4.335899;-5.08289;
1584543161;11223;876;503077;1584543161;11223;-8.50181;5.702988;-2.197877;
1584543161;109495;876;601572;1584543161;109495;-5.24809;4.307169;-3.517082;
1584543161;201957;876;693912;1584543161;201957;-3.035848;2.482787;1.539472;
1584543161;302000;876;793925;1584543161;302000;-9.718064;-0.6153098;-5.386954;
1584543161;325160;876;817158;1584543161;325160;-10.11311;-6.229712;-0.9265561;
1584543161;426151;876;917911;1584543161;426151;-12.35408;-4.824317;-3.145981;
1584543161;512168;877;4178;1584543161;512168;-9.5385;-2.365471;2.825158;
1584543161;607065;877;98921;1584543161;607065;-14.79856;-4.52983;2.497152;
1584543161;644068;877;141099;1584543161;644068;-18.77294;-0.5674258;-0.806846;
1584543161;721768;877;213888;1584543161;721768;-5.750873;8.602366;-2.384625;
1584543161;812441;877;304508;1584543161;812441;-4.893748;1.235408;-0.2298434;
1584543161;907455;877;399660;1584543161;907455;-12.96221;-0.950498;-3.847482;
1584543161;933235;877;432179;1584543161;933235;-16.18959;2.456451;-0.6440402;
1584543162;22194;877;514109;1584543162;22194;-12.93587;-3.617639;-5.805939;
1584543162;112763;877;604650;1584543162;112763;-2.734178;1.252167;-1.072602;
1584543162;137919;877;636046;1584543162;137919;-9.519346;-3.074155;1.833959;
1584543162;222469;877;716110;1584543162;222469;-14.31254;-1.130063;3.363853;
1584543162;313065;877;805003;1584543162;313065;-13.06037;-5.485116;-1.09415;
1584543162;338967;877;838608;1584543162;338967;-18.11213;-5.904101;1.431733;
1584543162;423038;877;914960;1584543162;423038;-15.3205;-1.302446;1.61848;
1584543162;517533;878;13850;1584543162;517533;-7.752425;3.804386;0.3232172;
1584543162;557465;878;49843;1584543162;557465;-2.691083;2.590526;0.4501099;
1584543162;642822;878;135029;1584543162;642822;-10.28549;-4.824317;0.1508347;
1584543162;727591;878;220477;1584543162;727591;-6.900089;-0.3998317;0.4333505;
1584543162;817828;878;309673;1584543162;817828;-5.533;-0.1484405;-1.06542;
1584543162;843251;878;336283;1584543162;843251;-0.8475474;-0.7158663;-1.017536;
1584543162;928144;878;420239;1584543162;928144;-11.03009;-2.626439;-3.818752;
1584543162;964665;878;456947;1584543162;964665;-7.603984;2.688689;-1.908179;
1584543163;42240;878;534139;1584543163;42240;-6.17704;-0.237026;0.1723825;
1584543163;128251;878;620292;1584543163;128251;-4.599261;2.837129;-3.622427;
1584543163;218321;878;710193;1584543163;218321;-10.82897;2.327164;1.422156;
1584543163;243472;878;735265;1584543163;243472;-15.42824;-0.4046201;5.23133;
1584543163;328437;878;820526;1584543163;328437;-11.17374;-2.449268;-0.5195417;
1584543163;356198;878;856788;1584543163;356198;-8.451531;-4.022259;0;
1584543163;438530;878;933257;1584543163;438530;-11.82496;-6.153098;0.4884171;
1584543163;538558;879;30314;1584543163;538558;-8.942343;4.173093;-0.9121909;
1584543163;628868;879;121204;1584543163;628868;-1.338359;4.362236;-0.6224924;
1584543163;652305;879;147189;1584543163;652305;1.690306;3.481169;0.8379706;
1584543163;738524;879;230469;1584543163;738524;-5.044583;10.80503;-6.813898;
1584543163;774887;879;266643;1584543163;774887;-4.771644;7.826645;-3.711013;
1584543163;861415;879;360668;1584543163;861415;-0.7206547;4.967968;-0.8164228;
1584543163;954835;879;450778;1584543163;954835;2.006341;8.925584;-5.343858;
1584543164;39144;879;531070;1584543164;39144;-16.49126;-8.74123;-1.934515;
1584543164;62984;879;565968;1584543164;62984;-14.3293;-11.87763;2.822764;
1584543164;159732;879;651927;1584543164;159732;-14.82729;2.999935;-5.50427;
1584543164;264058;879;756218;1584543164;264058;-16.51281;-8.207323;3.883395;
1584543164;359467;879;851387;1584543164;359467;-11.2312;1.182736;0.9696517;
1584543164;457372;879;950346;1584543164;457372;-11.37246;3.189077;-0.6895301;
1584543164;564548;880;56716;1584543164;564548;-6.244078;5.786786;0.6847417;
1584543164;654559;880;146566;1584543164;654559;-10.13226;0.6847417;5.305551;
1584543164;698805;880;191276;1584543164;698805;-15.28219;-1.606509;2.135628;
1584543164;774571;880;266736;1584543164;774571;-3.277662;3.371036;-6.375759;
1584543164;870009;880;361933;1584543164;870009;-2.753332;2.930503;-0.1699883;
1584543164;959604;880;451702;1584543164;959604;-12.95263;2.434903;2.027889;
1584543165;59572;880;551682;1584543165;59572;-5.121197;4.022259;-7.539341;
1584543165;87586;880;592746;1584543165;87586;-9.983821;0.557849;0.9672575;
1584543165;190698;880;694190;1584543165;190698;-3.047819;-1.84593;0.5195417;
1584543165;279785;880;772071;1584543165;279785;-11.3533;-0.4285621;-3.004723;
1584543165;375584;880;867392;1584543165;375584;-4.788404;1.465251;-0.6464344;
1584543165;489125;880;981253;1584543165;489125;-9.679757;-0.8690952;-2.351106;
1584543165;584785;881;76928;1584543165;584785;-9.193734;1.302446;-0.2059013;
1584543165;670437;881;162755;1584543165;670437;-11.13304;-0.2442086;-3.251326;
1584543165;695704;881;187901;1584543165;695704;-7.493851;-1.012747;1.872266;
1584543165;780106;881;273303;1584543165;780106;-14.46337;-0.6727707;-3.634398;
1584543165;875099;881;377738;1584543165;875099;-13.28782;-2.75812;-5.533;
1584543165;975590;881;477465;1584543165;975590;-26.92759;-6.751649;-7.213729;
1584543166;75333;881;567784;1584543166;75333;-1.975216;1.699883;4.836287;
1584543166;175506;881;667934;1584543166;175506;-3.766079;3.445256;0.03830723;
1584543166;275496;881;768009;1584543166;275496;-15.33965;-1.601721;-2.300828;
1584543166;365641;881;857655;1584543166;365641;-0.1244985;2.590526;-1.414973;
1584543166;456094;881;948393;1584543166;456094;-16.23508;-3.368642;-1.862689;
1584543166;476211;881;987917;1584543166;476211;-9.023746;3.842694;1.841141;
1584543166;591498;882;83999;1584543166;591498;-6.725312;-2.602497;-3.773262;
1584543166;681248;882;175544;1584543166;681248;-8.83221;-0.7972692;0.4884171;
1584543166;709430;882;201699;1584543166;709430;-11.00854;1.836353;-1.221043;
1584543166;801170;882;293154;1584543166;801170;-4.663905;-1.302446;0.2442086;
1584543166;901491;882;393549;1584543166;901491;-8.429984;1.850718;0.237026;
1584543166;933021;882;425209;1584543166;933021;-9.797073;-1.486799;-2.56419;
1584543166;956441;882;448587;1584543166;956441;-11.50653;2.0231;-1.290475;
1584543166;977422;882;470276;1584543166;977422;-7.611167;1.982399;-4.884171;
1584543167;65362;882;557329;1584543167;65362;-7.220912;3.284845;1.225831;
1584543167;92311;882;588281;1584543167;92311;0.05506664;4.039018;-1.491588;
1584543167;176244;882;668311;1584543167;176244;-15.99087;-5.209783;-2.583344;
1584543167;271306;882;763225;1584543167;271306;-18.43775;-5.444415;-0.3112462;
1584543167;301846;882;794000;1584543167;301846;-14.07312;-2.284068;-2.106897;
1584543167;396268;882;888931;1584543167;396268;2.825158;2.853888;9.057265;
1584543167;421424;882;921355;1584543167;421424;-6.141127;-3.172317;5.602432;
1584543167;506596;883;2716;1584543167;506596;-2.221819;0.545878;-2.487576;
1584543167;597431;883;89596;1584543167;597431;-12.64617;-0.2106898;0.1436521;
1584543167;624227;883;124465;1584543167;624227;-10.12508;0.5961562;-1.731008;
1584543167;654591;883;146494;1584543167;654591;-11.68131;1.836353;3.579331;
1584543167;675078;883;166990;1584543167;675078;-11.21684;-1.45328;-0.6129156;
1584543167;705203;883;197499;1584543167;705203;-14.35084;0.533907;2.152387;
1584543167;806165;883;298266;1584543167;806165;-7.690176;-4.297592;2.264915;
1584543167;836486;883;329469;1584543167;836486;-12.48576;1.199495;6.684611;
1584543167;916871;883;409066;1584543167;916871;-9.56723;0.1364695;1.429338;
1584543168;18011;883;509991;1584543168;18011;-4.620809;3.229778;3.502717;
1584543168;48891;883;541131;1584543168;48891;-12.08832;2.169147;-0.5482722;
1584543168;69496;883;562278;1584543168;69496;-3.529053;4.699818;0.272939;
1584543168;90228;883;582075;1584543168;90228;-12.3038;2.224213;-10.05325;
1584543168;172433;883;664520;1584543168;172433;-13.05319;-4.18267;-0.5841852;
1584543168;192866;883;685144;1584543168;192866;-14.58787;-2.111686;-7.759608;
1584543168;277416;883;769465;1584543168;277416;-16.01003;-3.294421;-3.213019;
1584543168;297487;883;790752;1584543168;297487;-5.465962;1.493982;3.110068;
1584543168;387070;883;886773;1584543168;387070;-7.587225;-4.625597;-5.702988;
1584543168;482541;883;974373;1584543168;482541;-7.371747;5.717353;-4.050989;
1584543168;505536;883;997851;1584543168;505536;-10.35971;1.690306;0.2059013;
1584543168;602147;884;97884;1584543168;602147;-11.40598;-0.4453215;-4.400543;
1584543168;631542;884;123756;1584543168;631542;-8.53054;-0.9265561;-4.098873;
1584543168;726047;884;217954;1584543168;726047;-8.990228;3.220201;0.9409212;
1584543168;826879;884;318825;1584543168;826879;-2.454057;6.454768;-0.6129156;
1584543168;922492;884;414394;1584543168;922492;-8.540117;3.895366;-3.91452;
1584543169;26506;884;518283;1584543169;26506;-9.093178;-1.364695;-0.3782839;
1584543169;114047;884;606013;1584543169;114047;-10.34774;0.1484405;-2.712631;
1584543169;153039;884;645939;1584543169;153039;-7.359776;1.980005;-2.65517;
1584543169;232837;884;725134;1584543169;232837;-10.66138;1.247379;-4.680664;
1584543169;265056;884;757208;1584543169;265056;-13.49611;-0.641646;1.23062;
1584543169;288437;884;781922;1584543169;288437;-13.9989;-1.750161;-0.05746084;
1584543169;382751;884;874640;1584543169;382751;-3.435679;5.758055;-3.074155;
1584543169;487484;884;979344;1584543169;487484;-9.165004;3.608062;-1.438915;
1584543169;507660;885;12;1584543169;507660;-8.434772;3.900155;-1.015141;
1584543169;602913;885;94791;1584543169;602913;-1.94888;-1.537077;2.959233;
1584543169;633939;885;126910;1584543169;633939;-13.73553;-3.557784;-4.635174;
1584543169;734975;885;228160;1584543169;734975;-13.35725;-2.001553;-0.4572925;
1584543169;827582;885;319932;1584543169;827582;-9.560047;1.762132;1.108515;
1584543169;916548;885;409538;1584543169;916548;-8.317456;-0.1197101;-2.161964;
1584543169;945288;885;440438;1584543169;945288;-11.66694;1.374272;1.005565;
1584543170;37332;885;529452;1584543170;37332;-0.6033388;3.945644;1.297657;
1584543170;120670;885;612905;1584543170;120670;-8.231265;-0.9145851;2.343923;
1584543170;149463;885;650036;1584543170;149463;-4.819528;4.378995;0.3711013;
1584543170;237871;885;729693;1584543170;237871;-3.648763;2.161964;2.126051;
1584543170;321355;885;813428;1584543170;321355;-14.15213;-4.812346;-1.063026;
1584543170;350138;885;850444;1584543170;350138;-7.874529;1.893813;2.075773;
1584543170;433832;885;926003;1584543170;433832;-1.934515;1.697489;-1.496376;
1584543170;466135;885;958138;1584543170;466135;-7.666234;3.459621;0.5267243;
1584543170;487352;885;979257;1584543170;487352;-20.40817;-4.129998;0.2777274;
1584543170;508510;886;597;1584543170;508510;-10.27352;-3.20823;-1.278504;
1584543170;633939;886;126144;1584543170;633939;-3.86903;4.469975;6.323087;
1584543170;732910;886;225841;1584543170;732910;-15.22712;-0.5027823;-2.327164;
1584543170;827001;886;323195;1584543170;827001;0.06464344;6.165069;-1.434127;
1584543170;913991;886;405863;1584543170;913991;-10.87925;-0.7972692;-1.666364;
1584543170;948096;886;440204;1584543170;948096;-6.938396;1.276109;4.031836;
1584543171;36083;886;528801;1584543171;36083;-4.055778;2.707842;0.557849;
1584543171;69975;886;562505;1584543171;69975;-0.6464344;0.6847417;2.202666;
1584543171;153928;886;645832;1584543171;153928;-1.805228;4.292804;0.5482722;
1584543171;189277;886;683198;1584543171;189277;-6.806715;3.234566;-1.347936;
1584543171;273957;886;765877;1584543171;273957;-11.7699;1.283292;-4.869806;
1584543171;354467;886;846632;1584543171;354467;-8.264784;0.09337386;-1.551443;
1584543171;393938;886;885712;1584543171;393938;-11.70286;3.739743;-4.065354;
1584543171;489276;886;981285;1584543171;489276;-3.394978;-0.8283938;-2.731784;
1584543171;512019;887;4188;1584543171;512019;-21.0594;-3.895366;3.933673;
1584543171;599523;887;91381;1584543171;599523;-7.496245;2.947262;1.92015;
1584543171;619169;887;111060;1584543171;619169;-8.614338;4.067749;2.322376;
1584543171;704460;887;196501;1584543171;704460;-9.006987;0.9672575;-1.326388;
1584543171;724095;887;216289;1584543171;724095;-6.347029;1.953669;0.04788403;
1584543171;809599;887;301586;1584543171;809599;-18.68674;-6.931214;-2.753332;
1584543171;829505;887;328126;1584543171;829505;-13.86243;0.6129156;-1.16837;
1584543171;909570;887;401563;1584543171;909570;-12.16494;-4.187459;0.1604115;
1584543171;939535;887;431416;1584543171;939535;-18.96447;-1.426944;-0.6655881;
1584543171;960654;887;461799;1584543171;960654;-5.714959;0.8619126;0.8690952;
1584543172;54699;887;546618;1584543172;54699;-10.0748;-3.892972;-4.271256;
1584543172;154487;887;646413;1584543172;154487;-13.12501;-1.944092;3.05979;
1584543172;250477;887;742398;1584543172;250477;-13.77384;-0.8092402;-3.677494;
1584543172;290590;887;782334;1584543172;290590;-6.713341;0.8954314;4.383783;
1584543172;365064;887;857349;1584543172;365064;4.211401;6.868965;-0.56982;
1584543172;460024;887;980579;1584543172;460024;-18.07143;-4.276044;-3.502717;
1584543172;565160;888;57505;1584543172;565160;-12.98136;-2.688689;0.593762;
1584543172;660186;888;152284;1584543172;660186;-6.619967;1.479617;4.065354;
1584543172;756325;888;248583;1584543172;756325;-13.60864;-2.499547;1.264138;
1584543172;793235;888;286208;1584543172;793235;-15.10741;0;-3.576937;
1584543172;870153;888;371648;1584543172;870153;-11.33894;1.49877;-4.520253;
1584543172;965355;888;457396;1584543172;965355;-12.39478;-5.252879;3.29921;
1584543173;57979;888;549973;1584543173;57979;-16.47211;-4.944026;-2.178724;
1584543173;155109;888;646995;1584543173;155109;-14.80574;-5.554548;-3.040636;
1584543173;191491;888;688329;1584543173;191491;-8.209718;1.78368;-2.394202;
1584543173;270195;888;762390;1584543173;270195;-16.6421;-4.007894;-6.119579;
1584543173;367636;888;879255;1584543173;367636;-9.849746;-1.537077;-2.861071;
1584543173;471211;888;963418;1584543173;471211;-9.971849;-3.172317;-1.941698;
1584543173;497546;888;995935;1584543173;497546;-4.654328;0.7757213;-1.367089;
1584543173;580820;889;73126;1584543173;580820;-10.35253;-1.673547;-5.137957;
1584543173;616442;889;109997;1584543173;616442;-6.861782;0.938527;-4.019865;
1584543173;696504;889;195093;1584543173;696504;-9.830592;2.734178;-1.793257;
1584543173;725595;889;217757;1584543173;725595;-17.04672;-1.726219;-1.525106;
1584543173;746146;889;243931;1584543173;746146;-1.867477;3.198653;3.303998;
1584543173;831093;889;322987;1584543173;831093;-7.546524;-5.097255;0.3830723;
1584543173;857011;889;349501;1584543173;857011;-10.4866;-1.620875;-5.911284;
1584543173;882721;889;375396;1584543173;882721;-14.49929;-3.315969;6.282385;
1584543173;971823;889;464047;1584543173;971823;-4.027047;2.573767;-1.793257;
1584543174;66209;889;558433;1584543174;66209;-7.089231;-1.041478;-7.098808;
1584543174;166242;889;660850;1584543174;166242;-5.911284;3.847482;0.593762;
1584543174;259613;889;751759;1584543174;259613;-12.02608;-0.4237737;-1.714248;
1584543174;352559;889;850967;1584543174;352559;-17.89426;2.001553;0.6368576;
1584543174;441489;889;933515;1584543174;441489;-9.457096;3.29921;-0.7254431;
1584543174;468998;889;961456;1584543174;468998;-6.126762;1.149217;-1.556231;
1584543174;561569;890;54575;1584543174;561569;-9.708488;-1.165976;6.380548;
1584543174;589062;890;90094;1584543174;589062;-11.99256;0.8714894;4.79798;
1584543174;689310;890;191372;1584543174;689310;-12.29183;-3.306392;-3.469198;
1584543174;788933;890;290727;1584543174;788933;-11.54963;-1.549048;2.906561;
1584543174;900620;890;393371;1584543174;900620;-7.364564;-0.2442086;3.038242;
1584543174;998730;890;491631;1584543174;998730;-9.636662;0.9433154;-0.4740519;
1584543175;87176;890;579094;1584543175;87176;-7.970297;-4.218583;2.533065;
1584543175;181804;890;673916;1584543175;181804;-8.920795;-2.286463;-0.28491;
1584543175;207499;890;699385;1584543175;207499;-10.87207;-4.841076;0.1819593;
1584543175;307179;890;799370;1584543175;307179;-9.847351;3.701436;-0.8762778;
1584543175;337505;890;830178;1584543175;337505;-5.805939;3.971981;-4.532224;
1584543175;382193;890;874061;1584543175;382193;-13.90073;-3.964798;-2.748544;
1584543175;465955;890;957819;1584543175;465955;-3.021482;2.806004;-2.944868;
1584543175;496093;890;990180;1584543175;496093;-1.051054;1.599327;-3.22499;
1584543175;587771;891;79832;1584543175;587771;-9.885658;-1.525106;-4.252102;
1584543175;623589;891;116686;1584543175;623589;-13.20642;-1.879448;-3.773262;
1584543175;707744;891;199826;1584543175;707744;-10.82419;-3.181894;-2.23379;
1584543175;737174;891;229303;1584543175;737174;-7.57286;3.124433;0.7398083;
1584543175;757921;891;249816;1584543175;757921;-5.106832;7.558495;3.821146;
1584543175;781952;891;273840;1584543175;781952;-10.69011;1.889025;-5.346252;
1584543175;872777;891;364947;1584543175;872777;-8.281544;0.6823475;0.356736;
1584543175;968324;891;461626;1584543175;968324;-10.7763;7.520187;3.53863;
1584543176;4994;891;497758;1584543176;4994;-7.90326;5.224148;-0.818817;
1584543176;105067;891;597720;1584543176;105067;-4.692635;-3.663129;3.201048;
1584543176;192235;891;684267;1584543176;192235;0.06943185;6.512228;0.344765;
1584543176;216212;891;709126;1584543176;216212;-5.240908;6.584054;3.074155;
1584543176;302896;891;800101;1584543176;302896;-10.49379;-1.237802;1.620875;
1584543176;393036;891;885128;1584543176;393036;-11.8106;1.584962;-5.590461;
1584543176;417849;891;909718;1584543176;417849;-6.040571;2.13084;1.42455;
1584543176;505425;892;1133;1584543176;505425;-5.23133;5.039794;-0.5913678;
1584543176;592947;892;85029;1584543176;592947;-14.76025;-1.532289;-6.31351;
1584543176;622991;892;114957;1584543176;622991;-12.66293;1.046266;-10.29507;
1584543176;718070;892;216549;1584543176;718070;-12.03326;-2.741361;0.3663129;
1584543176;819654;892;311901;1584543176;819654;-9.011775;-0.7613561;-0.5602432;
1584543176;849885;892;341918;1584543176;849885;-12.69885;-1.323994;-3.153164;
1584543176;874529;892;366363;1584543176;874529;-11.86088;-1.467646;-4.989516;
1584543176;896800;892;398383;1584543176;896800;-0.4333505;0.5051765;3.730166;
1584543177;3121;892;494974;1584543177;3121;-8.317456;-0.8355764;1.558625;
1584543177;89443;892;589885;1584543177;89443;-13.72356;2.059013;0.1604115;
1584543177;178500;892;670422;1584543177;178500;-17.14248;-8.827421;2.274492;
1584543177;207365;892;699979;1584543177;207365;-8.973468;1.66397;-4.544195;
1584543177;302772;892;794647;1584543177;302772;-2.820369;5.951985;-6.727706;
1584543177;387875;892;879999;1584543177;387875;-6.555324;3.122039;-5.940014;
1584543177;410981;892;909470;1584543177;410981;-9.974244;2.779668;-6.991069;
1584543177;493430;892;985413;1584543177;493430;-12.25592;-0.4501099;1.924938;
1584543177;527399;893;19205;1584543177;527399;-13.0891;-0.2226608;-7.012617;
1584543177;613574;893;112046;1584543177;613574;-14.69082;-5.707777;-0.2346318;
1584543177;644850;893;141319;1584543177;644850;-19.51753;-4.295198;0.6344634;
1584543177;670723;893;162720;1584543177;670723;-7.050924;0.605733;3.663129;
1584543177;752202;893;245011;1584543177;752202;-7.891289;4.443638;-3.519476;
1584543177;779605;893;271366;1584543177;779605;-8.51857;5.456386;-3.85227;
1584543177;863851;893;360170;1584543177;863851;-12.60068;-7.132327;4.096479;
1584543177;958831;893;450776;1584543177;958831;-11.72201;0.7134721;-5.267244;
1584543177;984548;893;483835;1584543177;984548;-6.892907;6.244078;-3.040636;
1584543178;69083;893;561365;1584543178;69083;-11.77708;-0.7110779;-2.875436;
1584543178;93911;893;596029;1584543178;93911;-7.661445;1.292869;-3.660734;
1584543178;189113;893;681174;1584543178;189113;-5.858612;4.663905;3.143587;
1584543178;217021;893;710459;1584543178;217021;-6.603208;3.754108;2.312799;
1584543178;309321;893;801332;1584543178;309321;-14.52323;-1.620875;0.7374141;
1584543178;399664;893;891656;1584543178;399664;-10.16339;-5.363012;1.403002;
1584543178;418872;893;910983;1584543178;418872;-4.60405;2.588132;-2.621651;
1584543178;447331;893;946065;1584543178;447331;-9.358934;-3.940856;3.505111;
1584543178;534610;894;26626;1584543178;534610;-0.6248866;3.308787;-2.418144;
1584543178;624133;894;116581;1584543178;624133;-8.53054;0.05985504;-0.2561796;
1584543178;658713;894;151444;1584543178;658713;-2.446874;7.038953;1.78368;
1584543178;684994;894;177048;1584543178;684994;-5.11162;3.976769;0.8355764;
1584543178;769579;894;261754;1584543178;769579;-3.057395;5.803545;0.1340753;
1584543178;801540;894;293716;1584543178;801540;-19.50317;-4.369418;-4.240131;
1584543178;823623;894;316002;1584543178;823623;-12.78264;-3.033453;-2.27928;
1584543178;909541;894;401507;1584543178;909541;-10.8601;1.54426;-1.82917;
1584543178;936527;894;429278;1584543178;936527;-8.23366;0.344765;1.28808;
1584543179;19788;894;511858;1584543179;19788;-10.21606;2.03986;-1.750161;
1584543179;54792;894;551232;1584543179;54792;-9.674969;-2.537854;0.7206547;
1584543179;140620;894;632781;1584543179;140620;-11.08515;-0.6009446;0.5075707;
1584543179;171612;894;664015;1584543179;171612;-10.40759;0.8212112;-1.723825;
1584543179;255761;894;751131;1584543179;255761;-10.04846;1.70946;0.5171475;
1584543179;278727;894;778375;1584543179;278727;-11.49935;-1.180341;-2.786851;
1584543179;382515;894;876240;1584543179;382515;-9.011775;0.02394202;-1.668759;
1584543179;408917;894;901030;1584543179;408917;-13.56315;-0.9265561;-2.224213;
1584543179;430010;894;922472;1584543179;430010;-8.803479;0.2035071;1.039083;
1584543179;520515;895;12729;1584543179;520515;-14.51126;-0.5722142;-1.790863;
1584543179;541537;895;33853;1584543179;541537;-9.509769;-1.819593;-0.320823;
1584543179;640091;895;132148;1584543179;640091;-9.562442;0.6919243;-1.786074;
1584543179;735226;895;227148;1584543179;735226;-10.35013;1.328782;0.8810662;
1584543179;768503;895;260496;1584543179;768503;-14.19043;-3.564966;-0.7517793;
1584543179;874473;895;366524;1584543179;874473;-8.564059;0.9792285;-1.335965;
1584543179;899710;895;392343;1584543179;899710;-8.535329;-3.768473;3.569755;
1584543179;920229;895;413109;1584543179;920229;-8.152257;0.6799533;-1.932121;
1584543180;5472;895;497497;1584543180;5472;-2.485181;2.908955;3.378219;
1584543180;27388;895;520203;1584543180;27388;-16.65886;-0.1604115;-3.952827;
1584543180;48660;895;541213;1584543180;48660;-4.771644;1.826776;5.501875;
1584543180;135694;895;627835;1584543180;135694;-5.770026;0.07661445;-0.1197101;
1584543180;225527;895;717763;1584543180;225527;-17.89905;0.04070143;-4.819528;
1584543180;246078;895;738689;1584543180;246078;-8.149862;-1.537077;-0.8140286;
1584543180;335345;895;827278;1584543180;335345;-5.224148;2.619257;-2.70066;
1584543180;388369;895;883662;1584543180;388369;-11.00615;-0.4764461;-2.980781;
1584543180;489032;895;984079;1584543180;489032;-8.729259;-0.1053449;-3.481169;
1584543180;515789;896;8057;1584543180;515789;-1.431733;4.886566;0.8140286;
1584543180;537430;896;29670;1584543180;537430;-13.49372;-1.053449;3.940856;
1584543180;625974;896;117925;1584543180;625974;-1.817199;0.3064578;-1.321599;
1584543180;645267;896;137403;1584543180;645267;-15.08587;1.49877;0.9816227;
1584543180;730975;896;222963;1584543180;730975;-5.26485;3.912126;-1.036689;
1584543180;752609;896;244862;1584543180;752609;-14.73152;1.352724;0.8882488;
1584543180;851103;896;343150;1584543180;851103;-6.466739;2.820369;-1.884237;
1584543180;946034;896;437953;1584543180;946034;-2.219425;4.66151;1.941698;
1584543180;990230;896;486122;1584543180;990230;-6.667851;7.742848;1.187524;
1584543181;91716;896;587374;1584543181;91716;-17.92539;-7.888895;-2.056619;
1584543181;116976;896;609199;1584543181;116976;-14.51365;-1.78368;-1.501164;
1584543181;137602;896;629821;1584543181;137602;-16.06509;-4.730942;-0.9672575;
1584543181;159300;896;651743;1584543181;159300;-19.85511;-6.263232;-0.4405331;
1584543181;261618;896;756833;1584543181;261618;-7.963115;5.145139;1.21386;
1584543181;393102;896;888180;1584543181;393102;-8.554482;1.367089;-0.5961562;
1584543181;490715;896;988375;1584543181;490715;-8.834604;-1.367089;-2.636016;
1584543181;592601;897;87648;1584543181;592601;-15.26064;-3.541024;-4.429273;
1584543181;672515;897;172465;1584543181;672515;-4.884171;1.223437;-1.575385;
1584543181;769927;897;262435;1584543181;769927;-9.136273;-0.6512228;0.8044518;
1584543181;866717;897;358982;1584543181;866717;5.760449;1.161188;7.204153;
1584543181;966507;897;458546;1584543181;966507;-16.95574;-2.303222;-1.312023;
1584543182;67078;897;559049;1584543182;67078;-22.78322;-5.377377;-4.422091;
1584543182;172106;897;666999;1584543182;172106;-14.5759;-3.569755;2.310405;
1584543182;272323;897;766779;1584543182;272323;-8.140285;3.05979;-0.06943185;
1584543182;405541;897;897579;1584543182;405541;-4.180276;6.256049;-0.9552864;
1584543182;426975;897;919669;1584543182;426975;-8.875305;2.099715;-0.8619126;
1584543182;447792;897;939949;1584543182;447792;-15.62695;-1.73819;-1.61848;
1584543182;471506;897;980548;1584543182;471506;-11.82017;-3.699042;2.025495;
1584543182;567748;898;59954;1584543182;567748;-7.094019;4.948815;0.5506664;
1584543182;667216;898;159052;1584543182;667216;-13.43387;-1.441309;-1.659182;
1584543182;767540;898;259804;1584543182;767540;-15.95975;-3.605668;-2.291251;
1584543182;867897;898;359983;1584543182;867897;-12.42351;-2.348712;-3.026271;
1584543182;967588;898;459671;1584543182;967588;-3.742137;5.432444;1.513135;
1584543183;72492;898;564717;1584543183;72492;-8.073248;1.790863;4.158728;
1584543183;172442;898;664832;1584543183;172442;-6.416461;2.171541;-1.702277;
1584543183;272887;898;764881;1584543183;272887;-17.02277;-1.812411;0.8164228;
1584543183;382187;898;874769;1584543183;382187;-6.720524;4.599261;-0.4764461;
1584543183;484241;898;982319;1584543183;484241;-6.071695;-1.180341;6.165069;
1584543183;578080;899;81120;1584543183;578080;-6.737284;2.640805;3.521871;
1584543183;678041;899;169953;1584543183;678041;-6.153098;1.766921;1.142034;
1584543183;778115;899;270124;1584543183;778115;-9.890447;-0.3136404;-2.073379;
1584543183;878060;899;370797;1584543183;878060;-1.54426;7.742848;-5.303157;
1584543183;972996;899;465062;1584543183;972996;-7.275979;3.186682;1.39582;
1584543184;73414;899;565506;1584543184;73414;-11.12346;-1.68073;1.812411;
1584543184;169411;899;661649;1584543184;169411;-11.07558;-1.352724;-1.857901;
1584543184;188698;899;691098;1584543184;188698;-10.68772;-5.250484;-2.331952;
1584543184;283684;899;781927;1584543184;283684;-7.570466;0.5171475;1.422156;
1584543184;383312;899;875210;1584543184;383312;-9.809044;-4.745308;-4.616021;
1584543184;399749;899;902833;1584543184;399749;-16.28057;-7.015011;-1.491588;
1584543184;489052;899;981557;1584543184;489052;-10.50576;-0.6655881;0.2561796;
1584543184;522261;900;14204;1584543184;522261;-6.483498;-2.226608;-2.020706;
1584543184;539243;900;31191;1584543184;539243;-5.72693;-2.341529;-2.70066;
1584543184;558481;900;50415;1584543184;558481;-8.75799;0.9193735;-0.320823;
1584543184;578002;900;75864;1584543184;578002;-16.95095;-0.4932055;-3.107674;
1584543184;604440;900;96319;1584543184;604440;-12.35887;-1.503559;3.96001;
1584543184;684132;900;176251;1584543184;684132;-9.624691;3.313575;4.977545;
1584543184;719899;900;211863;1584543184;719899;-12.20085;1.865083;-0.2585738;
1584543184;738477;900;230376;1584543184;738477;-9.722853;-1.084573;-2.37026;
1584543184;754016;900;245943;1584543184;754016;-9.220071;-0.4237737;-4.376601;
1584543184;770810;900;263914;1584543184;770810;-7.352593;1.968034;0.01197101;
1584543184;802646;900;296812;1584543184;802646;-8.53054;3.023877;-0.06703765;
1584543184;888510;900;380469;1584543184;888510;-11.36049;4.795586;-3.141193;
1584543184;909939;900;406377;1584543184;909939;-13.36922;4.575319;-5.08289;
1584543184;935788;900;434491;1584543184;935788;-3.758897;7.366959;5.303157;
1584543184;959404;900;451371;1584543184;959404;-10.45308;-3.055001;-4.220977;
1584543184;975782;900;468422;1584543184;975782;-10.93671;-2.001553;-1.16837;
1584543184;997867;900;489789;1584543184;997867;-11.13543;-0.6105214;-3.727772;
1584543185;79710;900;572078;1584543185;79710;-16.31648;-6.981492;-0.01197101;
1584543185;101600;900;609622;1584543185;101600;-5.183446;-3.962404;-3.792415;
1584543185;199501;900;691382;1584543185;199501;-5.312734;1.410185;-4.644751;
1584543185;241641;900;733954;1584543185;241641;-8.662222;4.860229;-0.6344634;
1584543185;309476;900;809818;1584543185;309476;-11.00854;0.8355764;2.59292;
1584543185;340196;900;837109;1584543185;340196;-8.710106;2.901772;-2.906561;
1584543185;363584;900;866245;1584543185;363584;-14.71955;-3.790021;0.7661445;
1584543185;391446;900;884300;1584543185;391446;-11.20008;3.368642;0.1939303;
1584543185;464371;900;956572;1584543185;464371;-4.369418;-0.03830723;-5.087678;
1584543185;477545;900;969619;1584543185;477545;-18.01876;-0.3375824;-0.6368576;
1584543185;499195;900;992866;1584543185;499195;-10.4052;0.3926491;-3.153164;
1584543185;584449;901;96649;1584543185;584449;-12.80898;-2.889802;3.462016;
1584543185;684451;901;176499;1584543185;684451;-11.12586;0.2801216;3.375824;
1584543185;723663;901;215428;1584543185;723663;-14.60463;2.772485;0.830788;
1584543185;864583;901;356644;1584543185;864583;-3.397372;1.908179;5.676652;
1584543185;879010;901;370998;1584543185;879010;-12.27986;-1.989582;-0.2298434;
1584543185;897618;901;392846;1584543185;897618;-18.21509;-3.526659;-1.060631;
1584543185;995285;901;487214;1584543185;995285;-2.693477;7.469909;-0.9145851;
1584543186;90005;901;581885;1584543186;90005;-6.509834;-4.505888;0.5147533;
1584543186;105519;901;599309;1584543186;105519;-9.502586;3.25372;2.5187;
1584543186;200122;901;692268;1584543186;200122;-12.48576;-4.400543;-2.597709;
1584543186;295921;901;794928;1584543186;295921;-6.426037;3.450045;-0.6799533;
1584543186;385170;901;877168;1584543186;385170;-7.489063;7.156269;-5.841852;
1584543186;401590;901;893995;1584543186;401590;2.11408;7.36217;-4.474763;
1584543186;495219;901;987175;1584543186;495219;-14.44901;-4.194641;-0.9481038;
1584543186;511382;902;6875;1584543186;511382;-16.96053;-3.416526;-1.649605;
1584543186;600501;902;92703;1584543186;600501;-12.2224;2.844311;5.284003;
1584543186;614513;902;125862;1584543186;614513;-10.10593;0.7733271;-0.4860229;
1584543186;705602;902;197752;1584543186;705602;-13.14177;-6.71813;-3.383007;
1584543186;878096;902;372180;1584543186;878096;-11.20726;-1.359907;-5.240908;
1584543186;965051;902;459400;1584543186;965051;-9.674969;0.3375824;5.300763;
1584543186;990049;902;481893;1584543186;990049;-22.62521;-2.961627;0.07900865;
1584543187;76004;902;568503;1584543187;76004;-5.949591;0.2106898;-3.813963;
1584543187;98967;902;590902;1584543187;98967;-9.519346;1.613692;-3.593697;
1584543187;190643;902;682665;1584543187;190643;-8.00621;-4.429273;-4.960786;
1584543187;211048;902;702983;1584543187;211048;-7.062895;-6.272809;0.5746084;
1584543187;322815;902;818991;1584543187;322815;-7.28795;6.23929;-5.664681;
1584543187;415877;902;907947;1584543187;415877;-6.279991;1.707066;-0.8499416;
1584543187;444451;902;941589;1584543187;444451;-5.197812;2.305616;0.09576806;
1584543187;563018;903;55016;1584543187;563018;-10.79306;-2.588132;-2.185906;
1584543187;586046;903;77957;1584543187;586046;-7.831434;-3.466804;-3.938462;
1584543187;679894;903;172020;1584543187;679894;-16.73308;-7.060501;-0.4668693;
1584543187;766122;903;258636;1584543187;766122;-8.999804;2.822764;-1.96564;
1584543187;791867;903;284101;1584543187;791867;-6.584054;1.884237;-4.000711;
1584543187;878794;903;370820;1584543187;878794;-3.785233;3.37343;0.1101333;
1584543187;971162;903;463088;1584543187;971162;-6.090849;5.659893;-1.101333;
1584543187;994533;903;486447;1584543187;994533;-3.110068;7.345411;-1.419762;
1584543188;16250;903;508399;1584543188;16250;-10.76912;-3.323152;1.692701;
1584543188;42507;903;538145;1584543188;42507;-13.57273;-2.698265;-3.955221;
1584543188;136745;903;628871;1584543188;136745;-8.166622;-1.821988;-0.7733271;
1584543188;241459;903;733529;1584543188;241459;-7.508216;3.414132;-0.6655881;
1584543188;326615;903;818490;1584543188;326615;-21.77048;-11.91115;1.007959;
1584543188;411665;903;903768;1584543188;411665;-6.502652;2.782062;-2.075773;
1584543188;437185;903;929174;1584543188;437185;-10.17775;3.562572;3.782839;
1584543188;542455;904;34244;1584543188;542455;-4.783615;1.292869;-1.015141;
1584543188;584600;904;76581;1584543188;584600;-6.981492;3.751714;-1.879448;
1584543188;666530;904;158721;1584543188;666530;-16.25184;-3.05979;-0.9528922;
1584543188;751747;904;250844;1584543188;751747;-12.79701;4.783615;-5.092467;
1584543188;846465;904;338368;1584543188;846465;-5.851429;4.958392;4.774038;
1584543188;878696;904;370725;1584543188;878696;-6.607996;6.670246;4.122815;
1584543188;904315;904;396571;1584543188;904315;-11.84651;-0.8834604;-2.410961;
1584543188;928178;904;420400;1584543188;928178;-17.10418;-1.096544;-1.798045;
1584543189;22002;904;514262;1584543189;22002;-9.794679;4.098873;-1.192312;
1584543189;47279;904;539200;1584543189;47279;-7.340622;-0.5865794;-0.7158663;
1584543189;131985;904;624044;1584543189;131985;-11.80581;-3.564966;-4.180276;
1584543189;156631;904;657047;1584543189;156631;-11.78905;-0.7996634;-3.864241;
1584543189;247209;904;740593;1584543189;247209;-8.101978;-0.6823475;0.5123591;
1584543189;283220;904;774926;1584543189;283220;-8.063671;1.465251;0.2585738;
1584543189;372999;904;865212;1584543189;372999;-7.022193;3.416526;1.604115;
1584543189;492812;904;983178;1584543189;492812;-9.509769;-0.3112462;1.359907;
1584543189;575106;905;67838;1584543189;575106;-14.54956;-5.2026;0.8858546;
1584543189;676208;905;168700;1584543189;676208;-12.45224;-5.348647;-0.3854665;
1584543189;703140;905;195717;1584543189;703140;-6.794744;0.9648632;-1.659182;
1584543189;726632;905;218835;1584543189;726632;-10.75954;-5.647922;0.03591302;
1584543189;751752;905;257857;1584543189;751752;-10.95347;2.078167;7.896077;
1584543189;852866;905;345028;1584543189;852866;-12.11227;2.614468;-6.081272;
1584543189;882030;905;378167;1584543189;882030;-11.37725;-4.328717;5.372589;
1584543189;979666;905;472803;1584543189;979666;-12.91911;-3.531447;2.355894;
1584543190;73264;905;570257;1584543190;73264;-5.142745;2.106897;-10.60631;
1584543190;171043;905;663914;1584543190;171043;-9.212888;5.391742;-1.824382;
1584543190;262546;905;754484;1584543190;262546;-6.320693;4.639963;-8.034941;
1584543190;352253;905;844402;1584543190;352253;-8.137892;-2.456451;-6.112397;
1584543190;382329;905;875389;1584543190;382329;-14.54956;-2.99754;-4.900931;
1584543190;497546;905;989617;1584543190;497546;-13.67089;-7.015011;-6.150704;
1584543190;523405;906;15709;1584543190;523405;-13.32373;-0.4740519;-0.3160346;
1584543190;543727;906;35785;1584543190;543727;-6.564901;-1.953669;-2.999935;
1584543190;623212;906;115308;1584543190;623212;-7.24246;2.509123;1.292869;
1584543190;647580;906;142671;1584543190;647580;-12.97178;-5.516241;-0.06703765;
1584543190;672339;906;164521;1584543190;672339;-10.34295;-5.099649;-2.003947;
1584543190;768276;906;260389;1584543190;768276;-17.08502;1.149217;-2.252944;
1584543190;863408;906;355343;1584543190;863408;-10.55364;-0.7469909;-6.725312;
1584543190;963489;906;455439;1584543190;963489;-7.915231;4.055778;-1.877054;
1584543191;2685;906;494509;1584543191;2685;-9.883265;4.039018;-0.2705448;
1584543191;103080;906;595303;1584543191;103080;-17.53992;-0.56982;-6.260838;
1584543191;184037;906;696261;1584543191;184037;-5.41329;2.554613;1.491588;
1584543191;283628;906;795070;1584543191;283628;-8.497022;-2.272097;4.101267;
1584543191;384066;906;897074;1584543191;384066;-15.39711;-1.027112;5.24809;
1584543191;484081;906;978028;1584543191;484081;-13.61822;-0.8571242;-0.2513912;
1584543191;515556;907;8190;1584543191;515556;-10.04128;2.631228;2.339135;
1584543191;540569;907;32790;1584543191;540569;-8.99741;-5.920861;0.07900865;
1584543191;623305;907;118717;1584543191;623305;-16.3524;-0.1460463;9.502586;
1584543191;647528;907;140048;1584543191;647528;-6.818686;3.083732;0.9050083;
1584543191;673091;907;165228;1584543191;673091;-10.3238;5.62398;-1.742979;
1584543191;768903;907;260955;1584543191;768903;-12.91911;-0.3998317;-2.420538;
1584543191;810230;907;301990;1584543191;810230;-4.204218;3.775656;-1.091756;
1584543191;889373;907;381443;1584543191;889373;-15.99087;-4.106056;-5.114015;
1584543191;920716;907;412972;1584543191;920716;-10.1155;2.202666;-1.369483;
1584543192;1453;907;500447;1584543192;1453;-16.23987;-4.015076;-1.063026;
1584543192;109965;907;601686;1584543192;109965;-5.327099;5.62398;1.66397;
1584543192;196139;907;692552;1584543192;196139;-10.37886;-4.402937;0.3639187;
1584543192;291833;907;783869;1584543192;291833;-8.920795;-1.714248;-7.426814;
1584543192;374205;907;866146;1584543192;374205;-14.29817;-0.3974375;0.1197101;
1584543192;484523;907;976523;1584543192;484523;-7.742848;-0.296881;0.2250549;
1584543192;574600;908;66546;1584543192;574600;-7.158663;5.528212;7.173028;
1584543192;606062;908;106685;1584543192;606062;-10.59434;2.245761;-0.2537854;
1584543192;699678;908;191676;1584543192;699678;-15.93102;-4.419696;-0.9337386;
1584543192;732709;908;228110;1584543192;732709;-1.956063;-0.5889736;2.090138;
1584543192;818920;908;310847;1584543192;818920;-12.59829;-0.01675941;-3.600879;
1584543192;845955;908;337987;1584543192;845955;-11.12825;2.106897;-0.5722142;
1584543192;924941;908;417100;1584543192;924941;-8.123527;4.206612;-8.063671;
1584543192;950086;908;442030;1584543192;950086;-14.55435;-2.018312;1.362301;
1584543192;975003;908;473561;1584543192;975003;-15.17445;-1.00317;-0.007182605;
1584543193;54550;908;546481;1584543193;54550;-13.01488;2.403779;2.066196;
1584543193;79552;908;580141;1584543193;79552;-5.360618;2.801216;-5.81791;
1584543193;160288;908;652526;1584543193;160288;-4.189853;-2.528277;6.555324;
1584543193;250123;908;742037;1584543193;250123;-7.086837;0.2322376;-1.297657;
1584543193;274119;908;766046;1584543193;274119;-11.84651;1.352724;-0.4309563;
1584543193;355265;908;847225;1584543193;355265;-14.13776;-1.972822;-2.41575;
1584543193;385580;908;877564;1584543193;385580;-11.43471;2.432509;-3.859453;
1584543193;480270;908;972339;1584543193;480270;0.7062895;1.321599;0.4165911;
1584543193;558807;909;51176;1584543193;558807;-10.39802;1.534683;-10.04128;
1584543193;644974;909;137011;1584543193;644974;-9.124303;0.03830723;4.266468;
1584543193;666095;909;157994;1584543193;666095;-11.78187;-0.5722142;1.070208;
1584543193;749807;909;241670;1584543193;749807;-12.50492;0.7924808;-0.344765;
1584543193;781314;909;273561;1584543193;781314;-12.4283;1.601721;-2.456451;
1584543193;865082;909;357045;1584543193;865082;-15.37556;-3.193865;-1.228225;
1584543193;896559;909;389859;1584543193;896559;-5.784391;4.623203;-9.138668;
1584543193;988185;909;480522;1584543193;988185;-8.647857;-4.321534;7.402872;
1584543194;65455;909;557696;1584543194;65455;-12.89038;-1.041478;-0.7398083;
1584543194;91232;909;593273;1584543194;91232;-2.755726;-2.750938;-0.9528922;
1584543194;197557;909;690143;1584543194;197557;-5.554548;3.576937;3.840299;
1584543194;229089;909;722007;1584543194;229089;-7.141903;-0.1221043;1.01993;
1584543194;251759;909;744316;1584543194;251759;-3.971981;6.617573;-0.3136404;
1584543194;345867;909;837844;1584543194;345867;-13.29021;2.813187;2.367865;
1584543194;366007;909;858955;1584543194;366007;-9.854534;-3.924097;-2.102109;
1584543194;450689;909;942825;1584543194;450689;-9.849746;2.841917;-0.7661445;
1584543194;473916;909;970361;1584543194;473916;-10.58716;-0.9217677;-0.1268927;
1584543194;562894;910;54903;1584543194;562894;-13.73314;5.023035;-6.303933;
1584543194;651183;910;143099;1584543194;651183;-4.469975;2.264915;1.757344;
1584543194;674697;910;171766;1584543194;674697;-11.2719;1.142034;0.7900866;
1584543194;761376;910;253422;1584543194;761376;-5.255273;2.281674;-3.169923;
1584543194;797262;910;289611;1584543194;797262;-9.303867;-3.96001;-0.2633622;
1584543194;818496;910;313390;1584543194;818496;-16.69716;-4.752491;-2.030283;
1584543194;906149;910;398037;1584543194;906149;-15.33247;-3.011906;1.908179;
1584543194;936622;910;429688;1584543194;936622;-11.90397;-7.311892;2.48997;
1584543194;959114;910;451369;1584543194;959114;-16.54393;-0.6703765;-9.313444;
1584543194;984792;910;477439;1584543194;984792;-23.49191;-5.985504;-11.88242;
1584543195;66750;910;558674;1584543195;66750;-10.05086;-1.051054;-2.942474;
1584543195;156491;910;648580;1584543195;156491;-4.232948;-3.1795;2.003947;
1584543195;177470;910;678287;1584543195;177470;-14.80574;-3.217807;2.552219;
1584543195;277991;910;769862;1584543195;277991;-12.60308;2.018312;-5.351041;
1584543195;356591;910;848633;1584543195;356591;-8.429984;-1.249773;-9.967061;
1584543195;388471;910;880435;1584543195;388471;-4.853047;5.669469;6.663063;
1584543195;466616;910;958823;1584543195;466616;-9.615114;0.4094085;-12.48816;
1584543195;497454;910;989654;1584543195;497454;-3.993528;5.097255;9.746795;
1584543195;520421;911;12595;1584543195;520421;-3.102885;0.2513912;3.900155;
1584543195;606607;911;98784;1584543195;606607;-13.20642;0.213084;6.263232;
1584543195;627178;911;127862;1584543195;627178;-9.689334;0.5243301;-7.383718;
1584543195;716848;911;208876;1584543195;716848;-10.38126;0.7805098;-1.867477;
1584543195;819293;911;312230;1584543195;819293;-11.47541;6.584054;-4.19943;
1584543195;906953;911;398841;1584543195;906953;-12.55519;-3.222595;-4.132392;
1584543195;926789;911;419761;1584543195;926789;-5.439626;6.469133;4.539406;
1584543196;11777;911;503835;1584543196;11777;-9.933542;-5.360618;-2.681506;
1584543196;40252;911;532379;1584543196;40252;-14.3676;4.307169;1.28808;
1584543196;117557;911;609594;1584543196;117557;-8.954314;-0.2011129;-3.399766;
1584543196;148810;911;644640;1584543196;148810;-7.460332;3.627216;-2.530671;
1584543196;173507;911;665981;1584543196;173507;-5.427655;-0.4668693;2.001553;
1584543196;262243;911;754185;1584543196;262243;-10.11311;2.363077;-0.6799533;
1584543196;295723;911;795140;1584543196;295723;-8.683769;-1.968034;-3.04303;
1584543196;377384;911;869771;1584543196;377384;-3.620033;-2.492364;-2.990358;
1584543196;467413;911;959324;1584543196;467413;-10.30943;1.034295;0.533907;
1584543196;496513;911;988630;1584543196;496513;-16.5152;-5.801151;1.572991;
1584543196;572765;912;64829;1584543196;572765;-10.90798;-4.094085;-1.000776;
1584543196;599861;912;92049;1584543196;599861;-8.904036;5.437232;-1.956063;
1584543196;620867;912;113583;1584543196;620867;-12.53125;1.637634;0.8571242;
1584543196;722440;912;214374;1584543196;722440;-11.0253;-0.2059013;1.865083;
1584543196;751873;912;247066;1584543196;751873;-10.29746;1.960851;-4.589684;
1584543196;827945;912;320013;1584543196;827945;-9.184157;3.931279;2.054225;
1584543196;917347;912;409736;1584543196;917347;-12.03326;-4.534618;-1.687912;
1584543196;943239;912;440533;1584543196;943239;-3.167529;-0.9744401;-7.058106;
1584543197;28040;912;520088;1584543197;28040;-8.300697;-0.605733;-4.355053;
1584543197;62433;912;567130;1584543197;62433;-14.1234;-3.155558;1.501164;
1584543197;161171;912;653319;1584543197;161171;-12.45464;1.295263;-3.349488;
1584543197;181450;912;673541;1584543197;181450;-7.544129;-5.212177;-0.7685387;
1584543197;272911;912;764958;1584543197;272911;-7.144298;-0.4955997;-5.643133;
1584543197;292027;912;798777;1584543197;292027;-2.15957;5.877765;-5.604826;
1584543197;382893;912;874725;1584543197;382893;-5.44202;-0.3519476;-1.405396;
1584543197;477917;912;969850;1584543197;477917;-9.308656;8.480263;-2.229002;
1584543197;572114;913;64313;1584543197;572114;-12.06199;-2.267309;-4.158728;
1584543197;663359;913;155667;1584543197;663359;-12.49294;-1.211466;-4.223372;
1584543197;695358;913;194098;1584543197;695358;-7.651868;-2.437297;-2.77488;
1584543197;787121;913;278993;1584543197;787121;-8.599973;5.748478;3.016694;
1584543197;816151;913;308416;1584543197;816151;-10.94868;2.861071;2.298434;
1584543197;839764;913;332032;1584543197;839764;-10.78827;-4.999093;5.832275;
1584543197;923075;913;416765;1584543197;923075;-13.01009;-2.425326;-5.317522;
1584543197;946038;913;438937;1584543197;946038;-10.12029;-0.9983821;-4.764462;
1584543198;48200;913;548244;1584543198;48200;-12.11227;-1.546654;2.523489;
1584543198;146588;913;639015;1584543198;146588;-9.210494;1.711854;-4.173093;
1584543198;238677;913;730795;1584543198;238677;-19.21586;-0.1029507;2.549825;
1584543198;270009;913;764966;1584543198;270009;-6.739678;1.364695;0.6224924;
1584543198;356855;913;853882;1584543198;356855;-9.904812;-1.980005;0.9768343;
1584543198;444191;913;936457;1584543198;444191;-8.090008;-0.545878;-6.600814;
1584543198;476624;913;976949;1584543198;476624;-5.513846;1.790863;-2.102109;
1584543198;584169;914;76334;1584543198;584169;-13.75948;0.344765;2.504335;
1584543198;669161;914;161303;1584543198;669161;-9.363723;-1.233014;2.578555;
1584543198;768137;914;260376;1584543198;768137;-14.52323;-1.221043;-2.782062;
1584543198;854552;914;346506;1584543198;854552;-3.330334;4.381389;0.9672575;
1584543198;886124;914;378808;1584543198;886124;-8.796297;-2.252944;1.596933;
1584543198;910575;914;402458;1584543198;910575;-11.88242;4.094085;-4.730942;
1584543198;929921;914;430422;1584543198;929921;-6.768408;4.589684;-1.575385;
1584543199;16029;914;508154;1584543199;16029;-10.28788;2.020706;1.221043;
1584543199;35353;914;528668;1584543199;35353;-5.849035;-0.8283938;4.592079;
1584543199;58665;914;557363;1584543199;58665;-15.46894;0.9313444;0.5075707;
1584543199;139220;914;631119;1584543199;139220;-12.12184;1.369483;3.636792;
1584543199;159362;914;657876;1584543199;159362;-9.52174;2.928109;1.391031;
1584543199;254405;914;747391;1584543199;254405;-11.9327;-4.704606;3.294421;
1584543199;349421;914;841817;1584543199;349421;-6.354211;6.332664;-2.121263;
1584543199;444690;914;936687;1584543199;444690;-8.810662;1.594538;-11.05163;
1584543199;465627;914;964948;1584543199;465627;-13.91031;3.050213;-0.5674258;
1584543199;563314;915;56396;1584543199;563314;-8.588001;-0.7350199;2.202666;
1584543199;659746;915;151823;1584543199;659746;-10.26873;0.9289503;-1.714248;
1584543199;754442;915;246470;1584543199;754442;-9.054871;1.733402;-2.171541;
1584543199;791099;915;285551;1584543199;791099;-3.514688;0.04788403;-2.006341;
1584543199;891880;915;387803;1584543199;891880;-12.33972;-1.934515;3.924097;
1584543199;921392;915;414467;1584543199;921392;-9.100361;0.2059013;-1.647211;
1584543199;943967;915;436515;1584543199;943967;-11.55681;-0.4070143;2.037466;
1584543200;45338;915;537848;1584543200;45338;-15.03559;-1.228225;-0.6799533;
1584543200;66383;915;559126;1584543200;66383;-0.593762;6.732495;1.647211;
1584543200;160073;915;652206;1584543200;160073;-6.770802;2.827552;2.080561;
1584543200;260294;915;752848;1584543200;260294;-17.99003;2.221819;1.345541;
1584543200;354825;915;846768;1584543200;354825;-12.76349;-1.357512;-5.169081;
1584543200;381343;915;877225;1584543200;381343;-19.45289;-7.177816;-0.02154781;
1584543200;465352;915;957395;1584543200;465352;-4.412514;3.711013;-1.096544;
1584543200;495429;915;998036;1584543200;495429;-10.21366;-0.8834604;-4.996699;
1584543200;605322;916;97287;1584543200;605322;-7.508216;3.143587;-3.28245;
1584543200;633516;916;125627;1584543200;633516;-19.41219;0.1436521;-4.050989;
1584543200;654016;916;146809;1584543200;654016;-9.979033;0.8092402;0.248997;
1584543200;676883;916;173336;1584543200;676883;-9.708488;4.03423;3.849876;
1584543200;775730;916;267839;1584543200;775730;-11.54005;-2.312799;-2.671929;
1584543200;870467;916;363068;1584543200;870467;-13.63977;0.1460463;-0.8283938;
1584543200;978906;916;470796;1584543200;978906;-12.0165;-1.702277;0.5674258;
1584543201;65838;916;557840;1584543201;65838;-12.73955;-1.28808;1.692701;
1584543201;100057;916;592316;1584543201;100057;-11.15937;-3.234566;2.674323;
1584543201;180733;916;672825;1584543201;180733;-14.04439;-2.798822;-0.3711013;
1584543201;265883;916;757837;1584543201;265883;-5.872977;-2.724602;4.572925;
1584543201;285482;916;781878;1584543201;285482;-14.0372;-7.419631;-1.149217;
1584543201;394053;916;885942;1584543201;394053;-7.788338;3.878607;-3.119645;
1584543201;481013;916;973069;1584543201;481013;-10.70687;2.061408;-3.495534;
1584543201;604429;917;100548;1584543201;604429;-4.817134;-1.369483;-2.090138;
1584543201;687451;917;179669;1584543201;687451;-3.828328;3.98874;1.070208;
1584543201;775886;917;276130;1584543201;775886;-3.56736;8.240842;2.808398;
1584543201;871307;917;363237;1584543201;871307;-5.657498;-1.912967;-0.248997;
1584543201;956342;917;448384;1584543201;956342;-12.46661;2.870648;1.051054;
1584543201;978708;917;471412;1584543201;978708;-17.98764;-2.372654;-0.6655881;
1584543202;76776;917;568798;1584543202;76776;-13.97974;-1.323994;-0.8810662;
1584543202;166553;917;658796;1584543202;166553;-10.43154;-1.647211;-3.239355;
1584543202;195456;917;687376;1584543202;195456;-10.95826;0.3711013;2.097321;
1584543202;291952;917;784542;1584543202;291952;-7.876924;-1.683124;-1.367089;
1584543202;376958;917;869007;1584543202;376958;-14.47056;2.554613;1.527501;
1584543202;412452;917;904468;1584543202;412452;-11.07558;-3.497929;-5.161899;
1584543202;497022;917;989111;1584543202;497022;-12.65336;-2.959233;-3.454833;
1584543202;596803;918;88796;1584543202;596803;-3.011906;1.704672;-1.043872;
1584543202;632666;918;124614;1584543202;632666;-15.62695;0.8140286;0.04070143;
1584543202;717491;918;209724;1584543202;717491;-6.047753;-1.695095;-2.475605;
1584543202;745240;918;240428;1584543202;745240;-8.805874;-2.286463;-1.201889;
1584543202;770829;918;262764;1584543202;770829;-4.218583;4.335899;4.996699;
1584543202;856616;918;348907;1584543202;856616;-17.12812;-7.560889;-1.879448;
1584543202;877516;918;369632;1584543202;877516;3.112462;5.286397;0.9576806;
1584543202;982818;918;474687;1584543202;982818;-6.483498;3.596091;3.928885;
1584543203;5421;918;497455;1584543203;5421;-8.195353;3.766079;0.5770026;
1584543203;92548;918;584569;1584543203;92548;-11.49456;-4.230554;0.3974375;
1584543203;128574;918;624313;1584543203;128574;-10.72363;3.950433;1.130063;
1584543203;219409;918;712283;1584543203;219409;-7.422025;0.6081272;1.381454;
1584543203;302333;918;794149;1584543203;302333;-5.784391;1.73819;1.924938;
1584543203;336495;918;828490;1584543203;336495;-10.34535;-1.563414;-1.702277;
1584543203;356356;918;852608;1584543203;356356;-1.443704;-0.2681506;1.630451;
1584543203;441974;918;934547;1584543203;441974;-7.848193;1.922544;-0.7637503;
1584543203;469873;918;961873;1584543203;469873;-10.51294;-3.213019;-3.478775;
1584543203;552582;919;44960;1584543203;552582;-10.14184;-2.193089;-2.319981;
1584543203;642961;919;134878;1584543203;642961;-17.62132;-2.418144;-0.2801216;
1584543203;668146;919;161230;1584543203;668146;-11.13783;-2.080561;-3.11725;
1584543203;752609;919;244691;1584543203;752609;-19.47683;-6.646304;-2.209848;
1584543203;778130;919;278671;1584543203;778130;-18.20312;-3.845088;-3.110068;
1584543203;866099;919;358213;1584543203;866099;-1.628057;0.08140285;4.81474;
1584543203;947877;919;439908;1584543203;947877;-0.03351882;8.305486;1.73819;
1584543204;47934;919;539988;1584543204;47934;-11.57836;4.481946;3.828328;
1584543204;74735;919;566773;1584543204;74735;-5.329493;5.075707;1.898602;
1584543204;158010;919;649964;1584543204;158010;-12.12184;-8.06846;2.430115;
1584543204;248720;919;740939;1584543204;248720;-11.03248;-3.39019;-7.651868;
1584543204;274877;919;766910;1584543204;274877;-17.68118;-8.74123;-0.4501099;
1584543204;358451;919;850375;1584543204;358451;-13.6254;1.666364;-8.571242;
1584543204;383154;919;875089;1584543204;383154;-8.48984;-1.347936;3.715801;
1584543204;471840;919;963976;1584543204;471840;-7.862558;1.936909;1.204283;
1584543204;491552;919;993142;1584543204;491552;-16.87433;-2.418144;-2.568978;
1584543204;578417;920;70329;1584543204;578417;-10.87446;-0.9265561;-1.963245;
1584543204;668035;920;160298;1584543204;668035;-13.27585;4.249708;-1.156399;
1584543204;692695;920;194210;1584543204;692695;-10.63504;-1.723825;-2.475605;
1584543204;779663;920;271894;1584543204;779663;-11.85848;-2.097321;-10.08917;
1584543204;808410;920;300554;1584543204;808410;-8.659827;3.406949;0.08379706;
1584543204;835304;920;327767;1584543204;835304;-11.60709;-0.4357447;4.197035;
1584543204;918697;920;410661;1584543204;918697;-7.065289;8.834604;-2.341529;
1584543204;952561;920;445090;1584543204;952561;-4.821922;1.144428;1.628057;
1584543205;53487;920;548686;1584543205;53487;-12.89038;2.856282;-8.042124;
1584543205;86715;920;578481;1584543205;86715;-2.583344;0.03591302;10.96544;
1584543205;168689;920;660880;1584543205;168689;-8.178593;-4.955997;-5.81791;
1584543205;259707;920;751929;1584543205;259707;-13.54879;-10.18972;-4.680664;
1584543205;283579;920;775328;1584543205;283579;-5.147533;1.438915;-2.703054;
1584543205;363910;920;856100;1584543205;363910;-5.363012;-6.854599;-3.993528;
1584543205;390134;920;890522;1584543205;390134;-13.80976;4.685452;-1.448492;
1584543205;474010;920;965928;1584543205;474010;-9.174581;5.475539;1.240196;
1584543205;573849;921;65773;1584543205;573849;-16.4338;-4.220977;-0.1197101;
1584543205;666048;921;158131;1584543205;666048;-9.952696;2.439692;5.825093;
1584543205;753987;921;245912;1584543205;753987;-7.058106;-5.746084;-1.25935;
1584543205;786317;921;281349;1584543205;786317;-8.887277;0.4548983;2.647987;
1584543205;881620;921;373379;1584543205;881620;-17.5902;1.94888;11.73159;
1584543205;968966;921;464578;1584543205;968966;-9.342175;0.1125275;5.60722;
1584543206;59421;921;551384;1584543206;59421;-8.252813;-0.1867477;5.762844;
1584543206;84327;921;576728;1584543206;84327;-15.29416;-7.252037;-0.2082955;
1584543206;178985;921;677981;1584543206;178985;-5.68144;4.060566;-6.703764;
1584543206;264479;921;756641;1584543206;264479;-6.945579;-1.546654;-11.12825;
1584543206;359287;921;851212;1584543206;359287;-9.375693;-0.950498;4.194641;
1584543206;385205;921;889353;1584543206;385205;-12.98615;0.3758897;-0.605733;
1584543206;469253;921;961338;1584543206;469253;-13.64934;-4.762067;0.8858546;
1584543206;560099;922;52249;1584543206;560099;-18.1265;8.039729;-1.881842;
1584543206;599531;922;91295;1584543206;599531;-9.397242;-3.294421;2.434903;
1584543206;674315;922;176416;1584543206;674315;-14.61421;-2.844311;-5.554548;
1584543206;765154;922;257289;1584543206;765154;-12.34929;0.4405331;-4.489128;
1584543206;882591;922;374182;1584543206;882591;-14.6573;-9.581595;8.370129;
1584543206;909353;922;401473;1584543206;909353;-9.002198;9.287108;-2.176329;
1584543206;930065;922;421999;1584543206;930065;-17.70033;-1.182736;1.632846;
1584543207;15263;922;507202;1584543207;15263;-11.86088;-0.5315128;-6.258443;
1584543207;38902;922;530828;1584543207;38902;-0.2011129;3.91452;2.597709;
1584543207;125075;922;617474;1584543207;125075;-8.633492;-0.8092402;2.813187;
1584543207;151235;922;651958;1584543207;151235;-8.109161;-2.815581;-9.967061;
1584543207;235180;922;727108;1584543207;235180;-2.60968;5.363012;8.552089;
1584543207;320585;922;812665;1584543207;320585;-15.57189;-5.585672;-3.952827;
1584543207;341275;922;833516;1584543207;341275;-12.43309;5.803545;-5.8634;
1584543207;425498;922;917543;1584543207;425498;-13.74272;2.056619;-8.559271;
1584543207;445923;922;938768;1584543207;445923;-6.579266;2.027889;2.707842;
1584543207;529895;923;21836;1584543207;529895;-12.27507;-5.911284;1.575385;
1584543207;552009;923;44271;1584543207;552009;-8.995016;2.516306;3.86903;
1584543207;655634;923;172004;1584543207;655634;-7.594408;4.216189;-2.904167;
1584543207;755591;923;252414;1584543207;755591;-8.60955;-6.234501;-3.428497;
1584543207;851854;923;344009;1584543207;851854;-11.22402;2.238579;0.8331822;
1584543207;940648;923;432690;1584543207;940648;-16.75941;-5.602432;-8.11395;
1584543207;964071;923;456061;1584543207;964071;-8.640674;1.010353;-7.97748;
1584543208;55687;923;547824;1584543208;55687;-2.422932;-6.40449;-3.711013;
1584543208;155833;923;647898;1584543208;155833;-12.82334;-3.904943;-2.772485;
1584543208;240484;923;732502;1584543208;240484;-6.191405;3.229778;1.120486;
1584543208;264972;923;756976;1584543208;264972;-15.53358;1.996764;-3.196259;
1584543208;350670;923;842670;1584543208;350670;-10.04128;-5.190629;-0.1244985;
1584543208;371875;923;872657;1584543208;371875;-6.483498;5.549759;-8.020576;
1584543208;470944;923;962931;1584543208;470944;-10.23282;-0.2346318;-0.8954314;
1584543208;583672;924;75561;1584543208;583672;-4.189853;3.002329;-1.151611;
1584543208;682540;924;174960;1584543208;682540;-12.49055;1.467646;-6.971915;
1584543208;770401;924;262307;1584543208;770401;-11.20726;2.063802;1.362301;
1584543208;872530;924;364804;1584543208;872530;-2.420538;-5.810728;4.259285;
1584543208;970409;924;462208;1584543208;970409;-11.63343;-1.692701;-6.974309;
1584543209;70959;924;563244;1584543209;70959;-5.300763;-0.320823;6.593631;
1584543209;171136;924;662861;1584543209;171136;-13.92947;-2.236184;-7.714118;
1584543209;272410;924;764328;1584543209;272410;-7.295133;4.292804;-2.245761;
1584543209;356682;924;848830;1584543209;356682;-9.844957;2.451663;-5.23133;
1584543209;379972;924;872891;1584543209;379972;-6.038177;0.6105214;-3.763685;
1584543209;466404;924;961720;1584543209;466404;-13.68765;-9.093178;-1.719037;
1584543209;551737;925;43799;1584543209;551737;-9.959879;1.39582;3.41892;
1584543209;579708;925;71915;1584543209;579708;-17.89666;-1.857901;-5.966351;
1584543209;681247;925;172873;1584543209;681247;-10.43393;-0.4165911;-2.954445;
1584543209;767301;925;262975;1584543209;767301;-8.075643;-1.345541;-3.564966;
1584543209;875874;925;368036;1584543209;875874;-9.339781;-0.07900865;1.156399;
1584543209;976445;925;468794;1584543209;976445;-10.91277;-2.231396;9.859323;
1584543210;77960;925;579339;1584543210;77960;-17.39148;5.525817;-0.9744401;
1584543210;172327;925;677794;1584543210;172327;-12.48816;-1.156399;-1.338359;
1584543210;272184;925;767988;1584543210;272184;-14.36042;-0.05746084;0.05985504;
1584543210;371953;925;876069;1584543210;371953;-2.961627;1.87466;2.396596;
1584543210;472216;925;978380;1584543210;472216;-5.635951;-4.149151;3.392584;
1584543210;591990;926;83788;1584543210;591990;-8.413224;5.334281;-7.019799;
1584543210;691909;926;183997;1584543210;691909;-7.192182;-0.7709329;-4.374207;
1584543210;723513;926;215694;1584543210;723513;-15.59822;2.779668;-3.438074;
1584543210;747942;926;240105;1584543210;747942;-6.483498;-1.855506;-0.1005565;
1584543210;768969;926;261258;1584543210;768969;-2.674323;-0.9935937;7.656657;
1584543210;852763;926;344815;1584543210;852763;-3.651158;0.6703765;3.375824;
1584543210;873535;926;366429;1584543210;873535;-16.29494;-5.051765;-3.775656;
1584543210;967869;926;460052;1584543210;967869;-6.785168;10.32619;-1.651999;
1584543211;475;926;500224;1584543211;475;-9.952696;-4.685452;2.647987;
1584543211;92734;926;584730;1584543211;92734;-11.06839;1.666364;-6.682217;
1584543211;190049;926;683372;1584543211;190049;-18.67477;-2.439692;-2.454057;
1584543211;221989;926;714325;1584543211;221989;-4.165911;0.2561796;-6.799533;
1584543211;297548;926;789535;1584543211;297548;-11.23838;0.4165911;-6.538565;
1584543211;393094;926;885098;1584543211;393094;-17.13291;1.089362;3.277662;
1584543211;424459;926;916415;1584543211;424459;-8.209718;-7.960721;-6.007052;
1584543211;449398;926;941619;1584543211;449398;-14.54478;5.044583;-0.818817;
1584543211;471545;926;963677;1584543211;471545;-8.056489;-1.896208;0.7805098;
1584543211;558278;927;50224;1584543211;558278;-16.48887;-6.418855;-3.076549;
1584543211;593997;927;85863;1584543211;593997;-9.239224;3.095703;-4.357447;
1584543211;691759;927;183767;1584543211;691759;-11.04924;1.187524;-0.6224924;
1584543211;717086;927;209453;1584543211;717086;-9.828197;3.287239;0.5147533;
1584543211;793492;927;285576;1584543211;793492;-13.58949;6.442797;-1.319205;
1584543211;820301;927;318191;1584543211;820301;-0.545878;0.4141969;0.356736;
1584543211;908681;927;400761;1584543211;908681;-7.505822;1.675941;1.307234;
1584543212;4099;927;496147;1584543212;4099;-9.88087;4.683058;-0.308852;
1584543212;35313;927;527325;1584543212;35313;-7.412448;1.690306;2.394202;
1584543212;113576;927;614199;1584543212;113576;-4.893748;0.5793968;0.7685387;
1584543212;205434;927;697543;1584543212;205434;-5.83467;-0.6679823;-4.824317;
1584543212;303822;927;795849;1584543212;303822;-12.02608;-2.731784;-7.472303;
1584543212;334354;927;828400;1584543212;334354;-16.48887;-1.908179;3.993528;
1584543212;413811;927;905790;1584543212;413811;-11.61188;-5.312734;-3.61285;
1584543212;503966;927;995984;1584543212;503966;-3.931279;-0.806846;3.033453;
1584543212;531462;928;26726;1584543212;531462;-20.42972;-4.367024;-2.274492;
1584543212;613851;928;105716;1584543212;613851;-7.553706;-0.8978256;-2.456451;
1584543212;645379;928;137597;1584543212;645379;-9.483433;-3.983952;-1.022324;
1584543212;739790;928;232021;1584543212;739790;-19.89821;-6.414066;2.743755;
1584543212;764433;928;256381;1584543212;764433;-6.279991;-4.503493;-5.430049;
1584543212;783247;928;275393;1584543212;783247;-9.631873;7.070077;-1.331176;
1584543212;874441;928;366412;1584543212;874441;-8.836998;-4.22816;-4.608838;
1584543212;964595;928;457133;1584543212;964595;-10.50097;-8.286332;-7.007828;
1584543212;986695;928;491279;1584543212;986695;-7.551312;7.611167;-0.2944868;
1584543213;74328;928;566276;1584543213;74328;-11.90397;1.374272;-8.264784;
1584543213;159799;928;651885;1584543213;159799;-10.16099;9.246407;-7.486669;
1584543213;184516;928;688063;1584543213;184516;-6.438008;-2.710236;3.153164;
1584543213;269932;928;762031;1584543213;269932;-9.380482;-5.712565;-4.788404;
1584543213;290524;928;794108;1584543213;290524;-9.062054;6.007052;-2.118868;
1584543213;379645;928;871675;1584543213;379645;-9.361328;-2.128445;-1.807622;
1584543213;465048;928;961123;1584543213;465048;-18.22227;0.1675941;-1.005565;
1584543213;559725;929;51829;1584543213;559725;-10.62547;0.8379706;0.7709329;
1584543213;587143;929;80743;1584543213;587143;-17.07066;0.320823;1.879448;
1584543213;613295;929;105483;1584543213;613295;-13.65892;-1.537077;-3.718195;
1584543213;653095;929;145644;1584543213;653095;-6.368577;2.772485;-4.599261;
1584543213;734489;929;236191;1584543213;734489;0.9217677;-1.438915;-9.672575;
1584543213;820177;929;312330;1584543213;820177;-9.794679;-2.047042;-6.315904;
1584543213;852106;929;344914;1584543213;852106;-9.631873;2.319981;3.813963;
1584543213;873199;929;365323;1584543213;873199;-11.99734;1.276109;1.716643;
1584543213;915327;929;407288;1584543213;915327;-6.782773;3.615244;6.679822;
1584543213;995169;929;491350;1584543213;995169;-17.31965;-3.050213;-7.101202;
1584543214;21054;929;513291;1584543214;21054;-5.98311;-2.035071;0.05985504;
1584543214;105462;929;597542;1584543214;105462;1.204283;-1.802834;-8.628703;
1584543214;123572;929;615699;1584543214;123572;-12.10987;1.987187;13.9582;
1584543214;141475;929;637254;1584543214;141475;-7.615955;-2.868254;-7.920019;
1584543214;163235;929;654945;1584543214;163235;-7.534553;-1.197101;-0.1867477;
1584543214;185067;929;677480;1584543214;185067;-21.22699;-0.4979939;-3.665523;
1584543214;265207;929;757296;1584543214;265207;-12.24874;-3.564966;-5.073313;
1584543214;350971;929;845075;1584543214;350971;-9.076419;1.450886;3.708618;
1584543214;375228;929;871278;1584543214;375228;-13.01967;2.724602;-3.421314;
1584543214;401127;929;893156;1584543214;401127;-0.8619126;-1.122881;-2.899378;
1584543214;419052;929;916770;1584543214;419052;-8.693346;4.41012;-5.267244;
1584543214;443481;929;938594;1584543214;443481;-7.52737;3.155558;-4.52983;
1584543214;466553;929;959813;1584543214;466553;-4.240131;3.86903;0.6368576;
1584543214;491825;929;984120;1584543214;491825;-8.252813;4.453215;-0.5267243;
1584543214;510175;930;2882;1584543214;510175;-2.341529;0.2442086;1.532289;
1584543214;535029;930;26973;1584543214;535029;-8.487445;2.877831;1.400608;
1584543214;562540;930;54586;1584543214;562540;-2.681506;0.8738836;1.802834;
1584543214;585539;930;80536;1584543214;585539;-11.34852;7.860164;3.737349;
1584543214;670966;930;169105;1584543214;670966;-4.853047;2.612074;4.709394;
1584543214;760749;930;252846;1584543214;760749;-11.96622;-4.019865;-0.5434838;
1584543214;792131;930;284250;1584543214;792131;-5.12838;0.9840169;-7.888895;
1584543214;813102;930;305663;1584543214;813102;-14.73631;2.580949;5.925649;
1584543214;833659;930;325837;1584543214;833659;-6.26802;2.214637;1.041478;
1584543214;855536;930;347583;1584543214;855536;-12.04762;-6.033388;2.928109;
1584543214;875566;930;373632;1584543214;875566;-7.936779;0.1149217;-1.211466;
1584543214;903315;930;395304;1584543214;903315;-8.523358;4.58729;-0.4620809;
1584543214;919673;930;412892;1584543214;919673;-8.027759;3.91452;-2.913743;
1584543214;936200;930;428209;1584543214;936200;-9.083601;-5.671864;-1.539472;
1584543214;960197;930;452427;1584543214;960197;-13.1705;4.292804;-0.6392518;
1584543214;979161;930;479047;1584543214;979161;-6.58166;5.841852;-1.867477;
1584543215;65831;930;557847;1584543215;65831;-9.004593;-2.461239;-2.537854;
1584543215;170056;930;674161;1584543215;170056;-15.38035;1.106121;3.840299;
1584543215;260936;930;753220;1584543215;260936;-11.10431;-4.453215;-2.576161;
1584543215;279424;930;771370;1584543215;279424;-2.566584;-0.878672;-0.28491;
1584543215;298480;930;790480;1584543215;298480;-11.91355;5.731719;0.2657564;
1584543215;318768;930;810765;1584543215;318768;-15.40429;2.504335;-2.8491;
1584543215;415911;930;908058;1584543215;415911;-12.33253;2.193089;-3.543418;
1584543215;432193;930;926964;1584543215;432193;-8.042124;-3.246537;-2.298434;
1584543215;521002;931;13058;1584543215;521002;-13.14896;-4.793192;-2.437297;
1584543215;535830;931;29121;1584543215;535830;-7.412448;6.612785;3.339911;
1584543215;553535;931;51173;1584543215;553535;-7.029376;11.1474;2.298434;
1584543215;580960;931;73022;1584543215;580960;-10.46984;5.195417;-1.410185;
1584543215;670014;931;161561;1584543215;670014;-10.50097;-2.791639;-1.142034;
1584543215;691730;931;184160;1584543215;691730;-10.84334;-2.111686;-0.3782839;
1584543215;717064;931;209283;1584543215;717064;-9.469068;-0.3184288;0.2920926;
1584543215;735470;931;227411;1584543215;735470;-9.933542;-2.782062;-5.540183;
1584543215;751768;931;243925;1584543215;751768;-10.67335;1.010353;-6.624756;
1584543215;778309;931;270428;1584543215;778309;-11.20965;-6.806715;-2.554613;
1584543215;796600;931;288732;1584543215;796600;-13.39316;-0.08619126;-1.280898;
1584543215;876353;931;374333;1584543215;876353;-12.12184;1.73819;0.02394202;
1584543215;902532;931;399026;1584543215;902532;-6.315904;1.814805;2.746149;
1584543215;994522;931;490266;1584543215;994522;-14.09706;-7.041347;-1.929726;
1584543216;76599;931;568757;1584543216;76599;-10.15141;-5.391742;2.523489;
1584543216;95557;931;587939;1584543216;95557;-11.42513;2.619257;2.796427;
1584543216;181626;931;673846;1584543216;181626;-15.90708;-5.243302;-3.766079;
1584543216;200857;931;693058;1584543216;200857;-7.57286;-1.489193;-1.54426;
1584543216;281653;931;773701;1584543216;281653;-6.440403;-1.393425;-3.596091;
1584543216;301079;931;793224;1584543216;301079;-11.3533;1.417367;4.474763;
1584543216;394859;931;886609;1584543216;394859;-12.20803;-1.99437;-0.05267244;
1584543216;419243;931;911555;1584543216;419243;-13.12022;3.878607;-2.753332;
1584543216;435632;931;927828;1584543216;435632;-12.36126;0.09337386;-1.45328;
1584543216;451004;931;942796;1584543216;451004;-5.669469;1.927332;0.2274492;
1584543216;476098;931;973159;1584543216;476098;-9.143456;-7.184999;5.353435;
1584543216;502070;931;993978;1584543216;502070;-12.04762;-4.771644;2.901772;
1584543216;587682;932;79882;1584543216;587682;-9.957484;-3.260903;-12.87602;
1584543216;607047;932;98975;1584543216;607047;-9.318233;-1.35033;-1.529895;
1584543216;631223;932;123169;1584543216;631223;-9.797073;-5.006276;7.16824;
1584543216;646641;932;138578;1584543216;646641;-16.19917;-0.4189853;3.205836;
1584543216;827046;932;318423;1584543216;827046;-17.94933;3.292027;-4.757279;
1584543216;852071;932;345157;1584543216;852071;-6.054936;-2.06859;6.428432;
1584543216;882995;932;375009;1584543216;882995;-7.369353;5.935226;0.4620809;
1584543216;967392;932;459375;1584543216;967392;-7.319075;-3.095703;3.847482;
1584543217;56903;932;549171;1584543217;56903;-10.78348;-0.1580173;5.77242;
1584543217;91239;932;583028;1584543217;91239;-4.259285;4.690241;-2.549825;
1584543217;118293;932;612913;1584543217;118293;-8.836998;-2.856282;2.707842;
1584543217;196529;932;688581;1584543217;196529;-15.4019;-1.417367;1.225831;
1584543217;222453;932;714393;1584543217;222453;-5.070919;-7.050924;-5.073313;
1584543217;247851;932;740879;1584543217;247851;-10.25915;-2.892196;-6.445191;
1584543217;327400;932;819789;1584543217;327400;-12.60308;-0.06943185;-2.37026;
1584543217;355538;932;847544;1584543217;355538;-4.584896;-3.964798;3.691859;
1584543217;390733;932;882545;1584543217;390733;-13.68047;0.4812345;-4.5418;
1584543217;462894;932;954846;1584543217;462894;-7.026982;1.505953;-1.577779;
1584543217;552598;933;44721;1584543217;552598;-1.11091;3.351882;-7.726089;
1584543217;653122;933;145800;1584543217;653122;-6.002264;3.854665;-0.9217677;
1584543217;673604;933;165859;1584543217;673604;-15.59104;0.1292869;7.934384;
1584543217;757835;933;249842;1584543217;757835;-16.14889;8.24563;-2.245761;
1584543217;777900;933;273105;1584543217;777900;-6.919243;-0.8738836;-0.2896984;
1584543217;867833;933;359915;1584543217;867833;-6.133945;-1.929726;4.405331;
1584543217;962253;933;454153;1584543217;962253;-8.267179;2.183512;-5.916072;
1584543218;52994;933;545030;1584543218;52994;-4.675876;6.904878;1.580173;
1584543218;75801;933;568734;1584543218;75801;-15.04516;4.572925;2.762909;
1584543218;168112;933;660284;1584543218;168112;-16.1848;4.046201;1.039083;
1584543218;257811;933;749755;1584543218;257811;-12.04523;-4.685452;-5.760449;
1584543218;279848;933;772207;1584543218;279848;-11.99734;-3.198653;4.673481;
1584543218;382715;933;874615;1584543218;382715;-5.556942;-0.8475474;-7.12275;
1584543218;413549;933;905686;1584543218;413549;-8.312668;3.289633;-0.4572925;
1584543218;508576;934;750;1584543218;508576;-5.020641;4.551377;3.397372;
1584543218;537435;934;29562;1584543218;537435;-10.57998;-1.877054;-1.733402;
1584543218;563903;934;56126;1584543218;563903;-12.03565;0.8834604;-4.525041;
1584543218;663456;934;155373;1584543218;663456;-10.14423;0.4596867;0.6775591;
1584543218;683876;934;193473;1584543218;683876;-3.234566;-1.113304;-4.714183;
1584543218;778331;934;270280;1584543218;778331;-10.66138;2.276886;-3.512294;
1584543218;873540;934;365561;1584543218;873540;-8.853758;0.002394202;0.7398083;
1584543218;963708;934;455759;1584543218;963708;-10.37647;0.6847417;0.938527;
1584543218;994117;934;485950;1584543218;994117;-6.217741;3.404555;5.588067;
1584543219;74032;934;565989;1584543219;74032;-12.58153;2.078167;1.860295;
1584543219;168999;934;661156;1584543219;168999;-5.580884;-6.907272;2.480393;
1584543219;198724;934;698299;1584543219;198724;-17.64527;-3.672705;-4.22816;
1584543219;284575;934;776682;1584543219;284575;-13.69483;-5.746084;0.5770026;
1584543219;314464;934;806388;1584543219;314464;-14.53041;4.24492;-6.040571;
1584543219;398568;934;890475;1584543219;398568;-15.96693;-2.331952;-6.337452;
1584543219;427398;934;923316;1584543219;427398;-6.859388;2.542642;-1.283292;
1584543219;455839;934;948182;1584543219;455839;-8.700529;0.02394202;-0.272939;
1584543219;537008;935;29275;1584543219;537008;-7.019799;2.753332;7.386112;
1584543219;562415;935;58616;1584543219;562415;-18.16481;-2.185906;0.5793968;
1584543219;654459;935;146408;1584543219;654459;-10.91038;1.82917;4.627992;
1584543219;686608;935;178566;1584543219;686608;-11.28866;0.2513912;-3.694253;
1584543219;717633;935;209791;1584543219;717633;-12.40675;-0.5530606;1.510741;
1584543219;798873;935;290759;1584543219;798873;-12.21522;-2.906561;-7.082048;
1584543219;827528;935;319628;1584543219;827528;-5.540183;3.593697;2.65517;
1584543219;918906;935;410853;1584543219;918906;-12.79461;-0.9648632;4.127604;
1584543220;16075;935;508258;1584543220;16075;-6.904878;-4.259285;-1.347936;
1584543220;94165;935;586048;1584543220;94165;-5.013458;-2.667141;-2.341529;
1584543220;121124;935;613347;1584543220;121124;-11.88482;-1.900996;-1.403002;
1584543220;200051;935;692361;1584543220;200051;-7.831434;6.629544;-5.29358;
1584543220;227595;935;721094;1584543220;227595;-16.66843;-8.614338;2.542642;
1584543220;322442;935;814443;1584543220;322442;-14.48731;-8.597578;-4.647145;
1584543220;345903;935;841289;1584543220;345903;-9.794679;6.265626;0.4572925;
1584543220;444799;935;937280;1584543220;444799;-4.283227;-3.335123;-5.169081;
1584543220;467855;935;960871;1584543220;467855;-14.23113;-1.54426;1.034295;
1584543220;554996;936;47917;1584543220;554996;-9.89763;1.285686;-3.145981;
1584543220;650022;936;144681;1584543220;650022;-3.598485;1.958457;-1.249773;
1584543220;673941;936;171171;1584543220;673941;-15.47851;-0.2513912;-0.09097967;
1584543220;702518;936;194923;1584543220;702518;-7.515399;2.147599;4.455609;
1584543220;804741;936;296982;1584543220;804741;-5.501875;1.055843;5.260061;
1584543220;834984;936;327962;1584543220;834984;-10.48421;3.727772;-3.098097;
1584543220;861957;936;354896;1584543220;861957;-7.661445;5.827487;0.332794;
1584543220;950021;936;441944;1584543220;950021;-7.90326;-7.237672;-7.759608;
1584543220;986692;936;479729;1584543220;986692;-12.23437;2.96881;5.770026;
1584543221;62056;936;554810;1584543221;62056;-9.054871;-4.091691;7.735666;
1584543221;150458;936;642399;1584543221;150458;-3.074155;-2.525883;-6.569689;
1584543221;184458;936;680191;1584543221;184458;-13.35964;-3.203442;8.073248;
1584543221;264050;936;756185;1584543221;264050;-12.17691;2.434903;2.726996;
1584543221;376713;936;869678;1584543221;376713;-16.80011;-5.190629;-0.2753332;
1584543221;455430;936;947384;1584543221;455430;-2.128445;0.4285621;-3.624821;
1584543221;550928;937;42888;1584543221;550928;-11.21205;8.827421;5.295974;
1584543221;574129;937;66077;1584543221;574129;-13.64456;-2.695871;1.376666;
1584543221;669855;937;161641;1584543221;669855;-9.14585;1.731008;2.128445;
1584543221;755753;937;247847;1584543221;755753;-8.916007;1.364695;0.7038953;
1584543221;792383;937;284439;1584543221;792383;-9.090784;-0.1843535;-7.022193;
1584543221;865582;937;359053;1584543221;865582;-4.110844;8.118738;6.514623;
1584543221;961318;937;453392;1584543221;961318;-11.72441;10.63744;1.477222;
1584543222;53227;937;545411;1584543222;53227;-13.90073;7.879318;-4.386178;
1584543222;145958;937;642456;1584543222;145958;-20.77449;-0.9002198;-1.199495;
1584543222;181550;937;674661;1584543222;181550;-8.087613;3.667917;-3.442862;
1584543222;280224;937;772134;1584543222;280224;-11.71483;-6.306327;-5.358223;
1584543222;361030;937;853079;1584543222;361030;-11.61427;-1.812411;-3.052607;
1584543222;401534;937;893597;1584543222;401534;-6.777985;2.59292;-1.73819;
1584543222;487806;937;983219;1584543222;487806;-9.890447;3.847482;-1.335965;
1584543222;514953;938;7224;1584543222;514953;-6.442797;0.3998317;4.553771;
1584543222;602656;938;94686;1584543222;602656;-13.6254;-2.157176;-2.375048;
1584543222;623795;938;116003;1584543222;623795;-10.7787;-4.280833;-9.433154;
1584543222;711289;938;203284;1584543222;711289;-15.23909;2.904167;2.65517;
1584543222;737859;938;230084;1584543222;737859;-8.937554;7.673416;-6.689399;
1584543222;815967;938;308036;1584543222;815967;-8.872911;-4.637568;-4.189853;
1584543222;846959;938;338881;1584543222;846959;-14.83687;-4.254497;-4.24492;
1584543222;872763;938;365279;1584543222;872763;-9.011775;-0.4118027;1.87466;
1584543222;966125;938;458062;1584543222;966125;-14.73631;-7.900866;-1.077391;
1584543223;59575;938;551753;1584543223;59575;-17.48246;2.779668;-4.271256;
1584543223;147149;938;639330;1584543223;147149;-11.11149;3.964798;8.221688;
1584543223;175525;938;679719;1584543223;175525;-2.796427;6.275203;2.935291;
1584543223;276274;938;768561;1584543223;276274;-7.278373;1.06542;-0.6200982;
1584543223;307161;938;799374;1584543223;307161;-11.44189;3.191471;-1.577779;
1584543223;330096;938;822032;1584543223;330096;-12.01171;1.628057;-9.021352;
1584543223;363873;938;856121;1584543223;363873;-10.01016;4.110844;-3.653552;
1584543223;460931;938;953054;1584543223;460931;-9.277532;-2.576161;-5.420473;
1584543223;493429;938;985721;1584543223;493429;-12.50492;3.086126;-5.963956;
1584543223;571923;939;64080;1584543223;571923;-11.66216;3.363853;-1.623269;
1584543223;595515;939;94907;1584543223;595515;-9.983821;0.9528922;-1.924938;
1584543223;676862;939;168929;1584543223;676862;-3.818752;0.9457096;1.211466;
1584543223;703350;939;195135;1584543223;703350;-4.053383;5.968745;1.412579;
1584543223;805357;939;298018;1584543223;805357;-10.47942;-0.7852982;0.782904;
1584543223;830158;939;323323;1584543223;830158;-10.31422;-3.275268;0.1699883;
1584543223;863115;939;354842;1584543223;863115;-4.043807;1.391031;1.613692;
1584543223;942001;939;441239;1584543223;942001;-11.70765;3.272874;-7.254431;
1584543224;42825;939;542205;1584543224;42825;-17.5902;-3.057395;-5.425261;
1584543224;137190;939;629284;1584543224;137190;-1.936909;5.209783;6.631938;
1584543224;168487;939;660859;1584543224;168487;-12.99573;2.430115;0.8379706;
1584543224;332321;939;824428;1584543224;332321;-5.679046;-2.765303;3.035848;
1584543224;365512;939;858501;1584543224;365512;-12.37084;2.80361;0.6320692;
1584543224;451419;939;948759;1584543224;451419;-17.40106;-6.141127;-1.582567;
1584543224;542587;940;34674;1584543224;542587;-9.890447;-1.37906;-1.814805;
1584543224;627310;940;119595;1584543224;627310;-10.57519;2.272097;0.4333505;
1584543224;652260;940;149968;1584543224;652260;-10.71405;6.766014;-1.848324;
1584543224;737965;940;230167;1584543224;737965;-10.91995;0.02394202;-2.5187;
1584543224;772499;940;264692;1584543224;772499;-11.24557;-0.08140285;-5.985504;
1584543224;862688;940;357417;1584543224;862688;-9.890447;0.02633622;-1.714248;
1584543224;956427;940;453169;1584543224;956427;-6.940791;1.56102;-6.112397;
1584543225;48027;940;540379;1584543225;48027;-13.47457;-3.885789;-0.4548983;
1584543225;133452;940;625494;1584543225;133452;-11.03966;-0.3854665;3.531447;
1584543225;157530;940;654360;1584543225;157530;-15.3205;-3.306392;-1.175553;
1584543225;278770;940;770684;1584543225;278770;-12.87123;2.851494;-10.71884;
1584543225;366620;940;868771;1584543225;366620;-4.510676;-1.843535;-4.192247;
1584543225;453335;940;945432;1584543225;453335;-7.103596;3.904943;-1.87466;
1584543225;543537;941;35594;1584543225;543537;-11.46344;0.8714894;-6.710947;
1584543225;638063;941;129962;1584543225;638063;-11.84651;2.92332;-6.189011;
1584543225;658661;941;163044;1584543225;658661;-12.37563;-2.786851;-1.482011;
1584543225;758136;941;250113;1584543225;758136;-8.738836;-2.70066;-0.9121909;
1584543225;790655;941;283427;1584543225;790655;-10.36929;-1.211466;-5.865794;
1584543225;883595;941;375656;1584543225;883595;-15.6102;-3.055001;1.180341;
1584543225;903174;941;395108;1584543225;903174;-11.72201;0.260968;-5.595249;
1584543225;994003;941;485893;1584543225;994003;-11.24317;2.497152;2.23379;
1584543226;13599;941;510618;1584543226;13599;-10.43872;-0.7637503;0.9121909;
1584543226;98735;941;590677;1584543226;98735;-5.535394;2.487576;0.06224924;
1584543226;128376;941;620342;1584543226;128376;-13.88876;-5.633556;1.309628;
1584543226;148604;941;640951;1584543226;148604;-7.94875;4.74052;-1.036689;
1584543226;190789;941;683100;1584543226;190789;-11.2312;-2.284068;-1.747767;
1584543226;288505;941;780628;1584543226;288505;-18.6221;-1.161188;-9.950302;
1584543226;309041;941;801215;1584543226;309041;-12.0165;-8.178593;-0.1268927;
1584543226;389106;941;881218;1584543226;389106;-7.331046;3.392584;1.774103;
1584543226;409068;941;901273;1584543226;409068;-4.965574;1.09415;-1.539472;
1584543226;494493;941;987515;1584543226;494493;-12.92629;-7.441179;-0.1987187;
1584543226;518037;942;12881;1584543226;518037;-11.83693;-3.773262;0.4429273;
1584543226;545509;942;38013;1584543226;545509;-3.983952;-2.109292;1.529895;
1584543226;567782;942;60451;1584543226;567782;-12.65575;0.1340753;-2.080561;
1584543226;664478;942;156710;1584543226;664478;-9.643845;6.995857;1.146823;
1584543226;753957;942;246010;1584543226;753957;-11.49935;5.470751;2.851494;
1584543226;795619;942;287848;1584543226;795619;-5.748478;-0.05027824;3.143587;
1584543226;875359;942;369200;1584543226;875359;-3.861847;-1.225831;-2.25055;
1584543226;964734;942;464812;1584543226;964734;-13.28303;-1.007959;5.372589;
1584543227;59426;942;551745;1584543227;59426;-12.38999;-3.892972;-1.130063;
1584543227;154627;942;646967;1584543227;154627;-10.99178;-1.022324;-1.331176;
1584543227;183063;942;676613;1584543227;183063;-15.32768;4.31914;-1.596933;
1584543227;273866;942;766340;1584543227;273866;-11.99256;1.821988;-7.67581;
1584543227;305000;942;797173;1584543227;305000;-7.522582;4.134786;4.209006;
1584543227;325556;942;820754;1584543227;325556;-17.40106;-1.826776;-1.221043;
1584543227;409927;942;901853;1584543227;409927;-9.995792;0.56982;-2.578555;
1584543227;434982;942;927190;1584543227;434982;-8.511387;5.525817;-2.480393;
1584543227;514757;943;6724;1584543227;514757;-15.30374;-1.999158;0.653617;
1584543227;536122;943;29269;1584543227;536122;-12.60068;0.1101333;3.385401;
1584543227;560382;943;52598;1584543227;560382;-6.497863;-0.1556231;1.125275;
1584543227;584837;943;97850;1584543227;584837;-12.87362;-1.881842;-0.8499416;
1584543227;690249;943;182055;1584543227;690249;-17.02517;-0.782904;-5.695806;
1584543227;774952;943;277968;1584543227;774952;-1.601721;3.052607;4.129998;
1584543227;869888;943;361920;1584543227;869888;-10.64223;-5.348647;-0.1460463;
1584543227;911274;943;404249;1584543227;911274;-14.81771;-0.5793968;-6.811504;
1584543227;994957;943;486842;1584543227;994957;-8.319851;1.685518;-4.651934;
1584543228;24379;943;516532;1584543228;24379;-14.25268;-6.294356;-1.273715;
1584543228;111322;943;603376;1584543228;111322;-2.528277;6.232107;7.982268;
1584543228;135807;943;628492;1584543228;135807;-17.31487;-5.846641;-1.357512;
1584543228;161965;943;654145;1584543228;161965;-8.796297;-0.5770026;4.436456;
1584543228;199341;943;698793;1584543228;199341;-5.612009;-1.912967;4.350265;
1584543228;280910;943;776447;1584543228;280910;-14.18565;-0.9241619;-2.650381;
1584543228;370815;943;862777;1584543228;370815;-14.65491;0.2154782;-1.340753;
1584543228;458889;943;951418;1584543228;458889;-11.54484;3.775656;1.711854;
1584543228;550441;944;46526;1584543228;550441;-12.03565;-2.839523;7.862558;
1584543228;589617;944;81589;1584543228;589617;-6.23929;0.6129156;-2.607285;
1584543228;675593;944;180514;1584543228;675593;-13.40992;-0.56982;9.315839;
1584543228;770300;944;262523;1584543228;770300;-8.437166;-0.878672;3.356671;
1584543228;795633;944;287922;1584543228;795633;-9.5385;0.9002198;0.3878607;
1584543228;880854;944;372898;1584543228;880854;-5.980716;-4.18267;-5.585672;
1584543228;971325;944;463744;1584543228;971325;-12.78504;0.5386954;-3.840299;
1584543229;64334;944;557208;1584543229;64334;-12.59111;3.98874;-5.940014;
1584543229;150911;944;642878;1584543229;150911;-6.548141;6.406884;5.386954;
1584543229;251263;944;743203;1584543229;251263;-2.954445;4.819528;0.653617;
1584543229;276330;944;768761;1584543229;276330;-7.958326;2.92332;-0.7661445;
1584543229;361081;944;853292;1584543229;361081;-2.978387;-1.474828;-3.198653;
1584543229;399249;944;891108;1584543229;399249;-8.209718;5.12838;1.970428;
1584543229;481059;944;986785;1584543229;481059;-2.193089;6.703764;-3.196259;
1584543229;576157;945;68597;1584543229;576157;-6.713341;0.6200982;-6.287174;
1584543229;600901;945;98046;1584543229;600901;-7.544129;1.367089;3.79481;
1584543229;694655;945;186830;1584543229;694655;-3.560178;0.5985504;-6.550536;
1584543229;729003;945;224287;1584543229;729003;-12.6773;-1.156399;4.419696;
1584543229;812911;945;305074;1584543229;812911;-16.08425;6.447585;4.165911;
1584543229;841154;945;333291;1584543229;841154;-8.327033;2.992752;-6.0286;
1584543229;864284;945;356535;1584543229;864284;-11.90876;2.030283;-2.597709;
1584543229;891265;945;394839;1584543229;891265;-6.804321;-2.573767;3.845088;
1584543229;986553;945;490928;1584543229;986553;-13.78342;-0.4668693;0.5363012;
1584543230;100724;945;592764;1584543230;100724;-14.01326;3.016694;-4.276044;
1584543230;186351;945;678190;1584543230;186351;-7.651868;0.09097967;0.6799533;
1584543230;210535;945;702477;1584543230;210535;-12.06199;-1.007959;4.932055;
1584543230;239385;945;731375;1584543230;239385;-11.34373;-3.739743;-2.367865;
1584543230;316631;945;808815;1584543230;316631;-1.66397;5.104438;2.896984;
1584543230;348236;945;840623;1584543230;348236;-6.821081;5.810728;-2.990358;
1584543230;372107;945;864878;1584543230;372107;-3.083732;3.392584;-4.209006;
1584543230;400334;945;892325;1584543230;400334;-10.41957;-0.1029507;3.462016;
1584543230;419386;945;912218;1584543230;419386;-3.490746;1.810017;1.616086;
1584543230;462499;945;955212;1584543230;462499;-7.972692;-1.005565;-2.190695;
1584543230;542264;946;33909;1584543230;542264;-13.70202;1.266533;-0.1867477;
1584543230;567574;946;59847;1584543230;567574;-7.960721;-0.5075707;-1.024718;
1584543230;646977;946;138924;1584543230;646977;-6.907272;-1.000776;0.4525041;
1584543230;672004;946;175974;1584543230;672004;-2.985569;2.844311;-0.4836287;
1584543230;765036;946;257812;1584543230;765036;-9.940725;5.655104;5.17387;
1584543230;851939;946;344773;1584543230;851939;-9.773131;0.8044518;-3.11725;
1584543230;947223;946;439149;1584543230;947223;-9.126697;-1.374272;-2.954445;
1584543230;980312;946;473729;1584543230;980312;-9.847351;1.237802;1.836353;
1584543231;72133;946;566776;1584543231;72133;-11.77947;2.691083;-1.23062;
1584543231;154988;946;671201;1584543231;154988;-9.509769;0.7709329;-0.1316811;
1584543231;262517;946;754717;1584543231;262517;-9.232041;0.248997;-0.7709329;
1584543231;286827;946;782675;1584543231;286827;-11.65497;-0.5841852;-0.3998317;
1584543231;369955;946;861909;1584543231;369955;-10.24479;-0.830788;0.3854665;
1584543231;393648;946;886789;1584543231;393648;-10.54646;-0.4764461;-1.316811;
1584543231;419788;946;912694;1584543231;419788;-9.691729;-0.1771709;-0.04548983;
1584543231;505038;946;998136;1584543231;505038;-9.464279;-0.1891419;-0.2082955;
1584543231;528955;947;21245;1584543231;528955;-10.27352;-0.1891419;-0.7254431;
1584543231;612783;947;105037;1584543231;612783;-9.955091;0.009576807;-0.5147533;
1584543231;641116;947;133163;1584543231;641116;-9.816227;0.02154781;-0.5363012;
1584543231;722760;947;214919;1584543231;722760;-9.892841;-1.654393;0.1939303;
1584543231;753912;947;250021;1584543231;753912;-9.914389;-1.637634;-0.6943185;
1584543231;846563;947;338526;1584543231;846563;-9.399635;-1.61848;1.180341;
1584543231;871436;947;364358;1584543231;871436;-9.088389;3.007117;1.197101;
1584543231;958006;947;449953;1584543231;958006;-9.289502;2.229002;1.177947;
1584543231;982014;947;479015;1584543231;982014;-10.9439;-0.2896984;-2.463634;
1584543232;80077;947;572301;1584543232;80077;-11.63343;1.340753;-1.161188;
1584543232;109311;947;601474;1584543232;109311;-9.514558;1.264138;0.1005565;
1584543232;130732;947;622701;1584543232;130732;-7.769185;2.229002;-2.037466;
1584543232;185139;947;681677;1584543232;185139;-10.59913;-0.320823;0.5123591;
1584543232;273219;947;767955;1584543232;273219;-9.967061;0.2705448;-0.6248866;
1584543232;304124;947;799194;1584543232;304124;-10.12029;0.3016694;-0.03351882;
1584543232;383230;947;875122;1584543232;383230;-9.940725;-0.3711013;-0.272939;
1584543232;409319;947;902047;1584543232;409319;-9.3733;0.1843535;-0.1532289;
1584543232;435253;947;927293;1584543232;435253;-9.9096;0.320823;-0.2561796;
1584543232;518880;948;10849;1584543232;518880;-10.0772;-0.1819593;-0.533907;
1584543232;540177;948;39450;1584543232;540177;-9.725247;-0.03830723;-0.2011129;
1584543232;628543;948;120639;1584543232;628543;-10.08198;0.08619126;-0.4477157;
1584543232;657348;948;150048;1584543232;657348;-9.610326;0.1364695;-0.308852;
1584543232;745585;948;243056;1584543232;745585;-9.902418;0.1556231;-0.5195417;
1584543232;771740;948;265281;1584543232;771740;-9.935937;0.1005565;-0.4501099;
1584543232;803531;948;295380;1584543232;803531;-9.969456;0.1460463;-0.4788403;
1584543232;883116;948;375301;1584543232;883116;-9.832986;0.1484405;-0.3950433;
1584543232;914061;948;405877;1584543232;914061;-9.856928;0.1077391;-0.4668693;
1584543232;934706;948;426766;1584543232;934706;-9.854534;0.1364695;-0.4740519;
1584543233;18462;948;510443;1584543233;18462;-9.88087;0.1029507;-0.5410896;
1584543233;39277;948;531227;1584543233;39277;-9.890447;0.1149217;-0.3902549;
1584543233;123797;948;615877;1584543233;123797;-9.861716;0.1460463;-0.3878607;
1584543233;150504;948;649271;1584543233;150504;-9.868899;0.1125275;-0.4237737;
1584543233;265569;948;757789;1584543233;265569;-9.828197;0.1388637;-0.4548983;
1584543233;352392;948;848970;1584543233;352392;-9.868899;0.1580173;-0.3830723;
1584543233;379450;948;871415;1584543233;379450;-9.849746;0.1101333;-0.4046201;
