sent.seconds;sent.microseconds;received.seconds;received.microseconds;sampleTimeStamp.seconds;sampleTimeStamp.microseconds;accelerationX;accelerationY;accelerationZ;
1584543401;118533;1116;610622;1584543401;118533;-9.904812;0.09576806;-0.4118027;
1584543401;143963;1116;636293;1584543401;143963;-9.892841;0.08858546;-0.3854665;
1584543401;175429;1116;667901;1584543401;175429;-9.856928;0.1340753;-0.3687071;
1584543401;272487;1116;764724;1584543401;272487;-9.835381;0.1292869;-0.3495534;
1584543401;299696;1116;799304;1584543401;299696;-9.859323;0.1244985;-0.4668693;
1584543401;383978;1116;876279;1584543401;383978;-9.849746;0.1484405;-0.3950433;
1584543401;416655;1116;909050;1584543401;416655;-9.883265;0.1005565;-0.4740519;
1584543401;440115;1116;936848;1584543401;440115;-9.861716;0.1005565;-0.4405331;
1584543401;523969;1117;16219;1584543401;523969;-9.876081;0.1221043;-0.4405331;
1584543401;547672;1117;40728;1584543401;547672;-9.890447;0.08858546;-0.4094085;
1584543401;579401;1117;71605;1584543401;579401;-9.885658;0.1364695;-0.4548983;
1584543401;606851;1117;98836;1584543401;606851;-9.890447;0.1508347;-0.4932055;
1584543401;684576;1117;176923;1584543401;684576;-9.883265;0.09816227;-0.3926491;
1584543401;769586;1117;261889;1584543401;769586;-9.866505;0.1532289;-0.4357447;
1584543401;796558;1117;291306;1584543401;796558;-9.873688;0.09337386;-0.332794;
1584543401;879116;1117;374396;1584543401;879116;-9.892841;0.09097967;-0.4477157;
1584543401;970020;1117;462844;1584543401;970020;-9.847351;0.1364695;-0.3591303;
1584543401;996962;1117;493135;1584543401;996962;-9.931149;0.1101333;-0.356736;
1584543402;85413;1117;578319;1584543402;85413;-9.935937;0.2633622;-0.2394202;
1584543402;116248;1117;608724;1584543402;116248;-9.77792;-0.04070143;-0.6105214;
1584543402;138865;1117;630963;1584543402;138865;-10.43393;0.2585738;-0.1077391;
1584543402;166623;1117;659966;1584543402;166623;-9.069236;-0.6560113;-0.9720459;
1584543402;267052;1117;760069;1584543402;267052;-10.50576;-0.5003881;-2.121263;
1584543402;293489;1117;785832;1584543402;293489;-11.24796;-1.795651;-0.85473;
1584543402;379721;1117;872134;1584543402;379721;-7.012617;-1.721431;-0.5123591;
1584543402;403917;1117;896288;1584543402;403917;-12.51449;-2.317587;-2.796427;
1584543402;484507;1117;978858;1584543402;484507;-10.55125;1.805228;-0.6751649;
1584543402;512093;1118;4869;1584543402;512093;-11.66934;-1.017536;-1.900996;
1584543402;594823;1118;86966;1584543402;594823;-4.453215;0.8571242;-0.08379706;
1584543402;621867;1118;114775;1584543402;621867;-8.580819;-1.309628;-0.3064578;
1584543402;704972;1118;197264;1584543402;704972;-3.734955;4.690241;3.734955;
1584543402;741335;1118;233554;1584543402;741335;-15.4019;0.2585738;-9.270349;
1584543402;823903;1118;316403;1584543402;823903;-12.59111;-6.543353;-1.968034;
1584543402;914758;1118;407027;1584543402;914758;-22.88378;-6.220136;0.07661445;
1584543403;5467;1118;497839;1584543403;5467;-3.787627;1.144428;4.383783;
1584543403;35559;1118;535425;1584543403;35559;-17.50161;-3.426103;-2.185906;
1584543403;125977;1118;618136;1584543403;125977;-20.67872;-3.840299;-2.217031;
1584543403;156228;1118;648683;1584543403;156228;-6.215347;1.924938;0.950498;
1584543403;250567;1118;742677;1584543403;250567;-10.74518;1.611298;0.2082955;
1584543403;282543;1118;774786;1584543403;282543;-19.59175;-1.51553;-4.66151;
1584543403;304333;1118;799440;1584543403;304333;-7.381324;-1.726219;-0.2106898;
1584543403;395213;1118;891266;1584543403;395213;-15.01883;-1.924938;-3.205836;
1584543403;426216;1118;918208;1584543403;426216;-3.720589;-0.1388637;5.195417;
1584543403;505513;1118;997870;1584543403;505513;-2.073379;2.149993;0.5243301;
1584543403;542558;1119;37016;1584543403;542558;-9.629479;-1.812411;0.05985504;
1584543403;621017;1119;116844;1584543403;621017;-12.92869;-4.726154;-0.8259996;
1584543403;708640;1119;201040;1584543403;708640;-5.935226;-0.830788;-3.754108;
1584543403;734480;1119;226615;1584543403;734480;-3.160346;8.099585;4.419696;
1584543403;820451;1119;312908;1584543403;820451;-24.2772;-2.47321;-2.899378;
1584543403;916263;1119;412935;1584543403;916263;-11.18092;-3.478775;1.42455;
1584543404;9640;1119;501915;1584543404;9640;-23.64274;-3.100491;-0.5195417;
1584543404;45284;1119;537510;1584543404;45284;-12.61505;2.140416;6.897695;
1584543404;124505;1119;617073;1584543404;124505;-18.99799;-3.167529;1.505953;
1584543404;216156;1119;708534;1584543404;216156;-7.026982;0.4405331;-1.493982;
1584543404;325433;1119;818640;1584543404;325433;-15.87595;-3.797204;0.002394202;
1584543404;411016;1119;903473;1584543404;411016;-10.28788;2.669535;-1.728614;
1584543404;506164;1119;998334;1584543404;506164;-11.56639;-2.554613;-2.726996;
1584543404;606193;1120;98335;1584543404;606193;-5.355829;2.796427;2.176329;
1584543404;692047;1120;184504;1584543404;692047;-4.029441;5.446809;6.440403;
1584543404;715050;1120;207468;1584543404;715050;1.137246;5.274426;3.756502;
1584543404;806326;1120;298504;1584543404;806326;-0.4668693;3.694253;0.4141969;
1584543404;850140;1120;342822;1584543404;850140;-10.3621;-3.1795;-1.529895;
1584543404;931998;1120;432491;1584543404;931998;-6.14831;5.056554;-0.5051765;
1584543404;962973;1120;455167;1584543404;962973;-4.058172;-0.009576807;-0.4860229;
1584543405;51823;1120;544053;1584543405;51823;-9.425972;-1.647211;-3.445256;
1584543405;72827;1120;566062;1584543405;72827;-5.468357;1.012747;-0.8403648;
1584543405;156630;1120;648930;1584543405;156630;-21.00673;-0.56982;0.2896984;
1584543405;177281;1120;669956;1584543405;177281;-18.13129;-2.643199;-2.118868;
1584543405;261830;1120;754233;1584543405;261830;-12.7587;2.612074;2.073379;
1584543405;282516;1120;781642;1584543405;282516;-12.10269;0.5793968;2.576161;
1584543405;361877;1120;854302;1584543405;361877;-11.41795;1.716643;-0.7038953;
1584543405;383197;1120;875962;1584543405;383197;-7.40766;-2.195483;-3.11725;
1584543405;467058;1120;959210;1584543405;467058;-7.520187;3.495534;-6.588843;
1584543405;487797;1120;985860;1584543405;487797;-6.119579;3.938462;-8.26239;
1584543405;566635;1121;58724;1584543405;566635;-5.250484;4.118027;-2.530671;
1584543405;587508;1121;79610;1584543405;587508;-9.016563;4.76925;0.2274492;
1584543405;666397;1121;158496;1584543405;666397;-5.386954;1.862689;5.940014;
1584543405;685608;1121;178768;1584543405;685608;-7.52737;0.950498;2.06859;
1584543405;767413;1121;259510;1584543405;767413;-11.62146;1.254562;-1.276109;
1584543405;787470;1121;279591;1584543405;787470;-11.62385;-5.109226;-0.8499416;
1584543405;872628;1121;364972;1584543405;872628;-13.19684;-1.297657;-1.007959;
1584543405;901453;1121;394612;1584543405;901453;-14.54478;-1.812411;0.2418144;
1584543405;977131;1121;469502;1584543405;977131;-7.450756;-3.627216;-2.851494;
1584543406;7477;1121;499627;1584543406;7477;-10.22564;-1.58975;-3.445256;
1584543406;27899;1121;528444;1584543406;27899;-8.027759;5.592855;-3.308787;
1584543406;123859;1121;616655;1584543406;123859;-11.5185;0.1412579;-2.715025;
1584543406;212937;1121;705300;1584543406;212937;-15.84243;-5.394136;-3.679888;
1584543406;322522;1121;814731;1584543406;322522;-4.568137;0.3351882;-3.035848;
1584543406;418456;1121;910683;1584543406;418456;-0.06703765;-1.819593;3.406949;
1584543406;513031;1122;5437;1584543406;513031;-5.619191;-2.600103;-4.436456;
1584543406;537911;1122;45003;1584543406;537911;-7.996634;-1.872266;-3.478775;
1584543406;627367;1122;119573;1584543406;627367;-10.02692;1.01993;3.976769;
1584543406;718480;1122;210658;1584543406;718480;-19.63245;-5.975927;-2.300828;
1584543406;755646;1122;247889;1584543406;755646;-13.32134;-0.9409212;-3.315969;
1584543406;832895;1122;329861;1584543406;832895;-9.749189;-5.209783;-1.283292;
1584543406;922979;1122;415153;1584543406;922979;-16.73308;0.6703765;-2.360683;
1584543406;954053;1122;446325;1584543406;954053;-13.65892;4.050989;-5.068525;
1584543407;42398;1122;534791;1584543407;42398;-11.27908;0.2106898;-1.343147;
1584543407;133148;1122;625416;1584543407;133148;-10.34056;3.507505;-1.359907;
1584543407;242263;1122;734355;1584543407;242263;-11.5616;6.787562;1.771709;
1584543407;268297;1122;760646;1584543407;268297;-9.167398;-9.394847;-0.3471592;
1584543407;288211;1122;781772;1584543407;288211;-5.226542;2.051831;-3.497929;
1584543407;373256;1122;865579;1584543407;373256;-6.993463;3.89776;-1.532289;
1584543407;394604;1122;886871;1584543407;394604;-4.074931;8.415619;-3.251326;
1584543407;478202;1122;970507;1584543407;478202;-14.06354;-2.516306;-0.02873042;
1584543407;500477;1122;992961;1584543407;500477;-15.96454;0.1197101;-1.527501;
1584543407;528767;1123;21179;1584543407;528767;-7.254431;0.6823475;1.771709;
1584543407;624228;1123;116722;1584543407;624228;-12.83531;-6.687005;1.091756;
1584543407;650783;1123;150051;1584543407;650783;-4.299986;-2.523489;-2.96881;
1584543407;679328;1123;172309;1584543407;679328;-13.11065;1.422156;-1.115698;
1584543407;764459;1123;256942;1584543407;764459;-2.396596;1.352724;-1.460463;
1584543407;795596;1123;288057;1584543407;795596;-7.07726;2.916138;-1.244985;
1584543407;878457;1123;370440;1584543407;878457;-10.6111;-6.296751;2.377442;
1584543407;900697;1123;393175;1584543407;900697;-12.38042;-7.687781;-2.47321;
1584543407;930641;1123;422925;1584543407;930641;-7.302315;5.451597;0.3998317;
1584543408;29155;1123;521510;1584543408;29155;-16.06749;-0.5602432;-9.052477;
1584543408;133944;1123;626102;1584543408;133944;-15.36838;-1.66397;-2.528277;
1584543408;247959;1123;740832;1584543408;247959;-3.37343;1.80044;1.759738;
1584543408;334185;1123;826368;1584543408;334185;-15.0284;-4.173093;-0.4740519;
1584543408;433952;1123;926117;1584543408;433952;-11.30063;1.043872;-0.8140286;
1584543408;458990;1123;954177;1584543408;458990;-9.643845;0.4141969;-2.628834;
1584543408;554413;1124;46594;1584543408;554413;-10.54406;-1.393425;4.072537;
1584543408;655915;1124;148336;1584543408;655915;-15.07629;1.647211;1.467646;
1584543408;685443;1124;177907;1584543408;685443;-8.714894;1.187524;-1.999158;
1584543408;709875;1124;202021;1584543408;709875;-14.26705;1.723825;1.54426;
1584543408;794319;1124;286599;1584543408;794319;-11.03488;2.23379;0.1029507;
1584543408;815490;1124;307972;1584543408;815490;-8.899247;-1.580173;-1.54426;
1584543408;914104;1124;406281;1584543408;914104;-11.16656;-3.617639;-2.8491;
1584543409;9472;1124;501746;1584543409;9472;-6.59842;8.90643;-0.3232172;
1584543409;44039;1124;536344;1584543409;44039;-3.557784;5.140351;-0.5650316;
1584543409;119992;1124;615661;1584543409;119992;-5.911284;0.3423708;-4.211401;
1584543409;214467;1124;706728;1584543409;214467;-11.88242;8.197746;1.912967;
1584543409;314962;1124;807298;1584543409;314962;-8.461108;-2.006341;2.463634;
1584543409;409484;1124;901900;1584543409;409484;-4.472369;4.304775;-4.532224;
1584543409;432659;1124;925978;1584543409;432659;-6.952762;0.5793968;0.4141969;
1584543409;524890;1125;17164;1584543409;524890;-12.99573;3.210624;-4.515464;
1584543409;620148;1125;112440;1584543409;620148;-18.79927;-0.7254431;-1.407791;
1584543409;714601;1125;206814;1584543409;714601;-1.587356;0.3471592;-3.557784;
1584543409;750476;1125;245720;1584543409;750476;-7.086837;2.72939;-2.147599;
1584543409;837212;1125;346403;1584543409;837212;-9.543288;8.468291;-1.223437;
1584543409;951896;1125;450846;1584543409;951896;-7.383718;3.5099;-1.99437;
1584543410;51968;1125;551336;1584543410;51968;-8.779537;1.472434;6.050148;
1584543410;151322;1125;651434;1584543410;151322;-12.84968;2.760514;-1.154005;
1584543410;189475;1125;681820;1584543410;189475;-15.47373;-5.633556;-3.04303;
1584543410;270625;1125;762775;1584543410;270625;-16.54154;2.240973;-2.602497;
1584543410;296502;1125;789286;1584543410;296502;-12.07156;-6.773197;-7.292738;
1584543410;320013;1125;812428;1584543410;320013;-7.103596;0.272939;0.7158663;
1584543410;405452;1125;898307;1584543410;405452;-4.307169;3.292027;-2.451663;
1584543410;427390;1125;919777;1584543410;427390;-1.450886;6.34224;5.913678;
1584543410;505252;1125;997664;1584543410;505252;-10.16339;4.242526;-2.691083;
1584543410;526636;1126;18903;1584543410;526636;-6.445191;1.42455;-1.766921;
1584543410;605416;1126;97763;1584543410;605416;-13.93425;-4.74052;-6.65588;
1584543410;627428;1126;119938;1584543410;627428;-13.69723;-2.530671;-3.933673;
1584543410;720698;1126;213217;1584543410;720698;-17.32684;-5.758055;-0.8738836;
1584543410;742049;1126;238113;1584543410;742049;-16.75941;-4.788404;-0.8714894;
1584543410;830627;1126;322787;1584543410;830627;-9.775525;4.481946;2.401384;
1584543410;925947;1126;418158;1584543410;925947;-15.94778;1.374272;-1.898602;
1584543410;963191;1126;455164;1584543410;963191;-1.249773;3.323152;-4.582502;
1584543411;74479;1126;567353;1584543411;74479;-2.365471;4.082114;4.357447;
1584543411;164999;1126;657344;1584543411;164999;-5.051765;5.513846;0.3687071;
1584543411;198606;1126;691056;1584543411;198606;-4.759673;2.437297;7.388506;
1584543411;274119;1126;767085;1584543411;274119;-7.659051;0.1915361;5.899313;
1584543411;358089;1126;854017;1584543411;358089;-4.886566;0.9648632;-3.981557;
1584543411;441162;1126;942637;1584543411;441162;-15.06432;1.345541;0.4189853;
1584543411;536593;1127;28946;1584543411;536593;-5.233725;0.09097967;-3.715801;
1584543411;567530;1127;59632;1584543411;567530;-15.95257;1.501164;5.08289;
1584543411;604258;1127;97313;1584543411;604258;-7.25922;1.292869;5.154716;
1584543411;681638;1127;173967;1584543411;681638;-3.576937;-0.03351882;5.05416;
1584543411;710941;1127;203470;1584543411;710941;-15.66766;-0.5171475;-0.6679823;
1584543411;732422;1127;226010;1584543411;732422;-11.54963;0.4429273;-5.152322;
1584543411;811728;1127;303988;1584543411;811728;-6.382942;-2.037466;-1.079785;
1584543411;838227;1127;332405;1584543411;838227;-10.9439;1.18513;-6.303933;
1584543411;926518;1127;418704;1584543411;926518;0.7398083;2.858677;0.6320692;
1584543411;955465;1127;447582;1584543411;955465;-7.496245;-3.263297;4.266468;
1584543412;49439;1127;541803;1584543412;49439;-10.54646;0.4405331;1.644817;
1584543412;80440;1127;574045;1584543412;80440;-9.244013;3.071761;0.7589619;
1584543412;161595;1127;661588;1584543412;161595;-9.370905;2.358289;-1.23062;
1584543412;246530;1127;738678;1584543412;246530;-5.372589;5.853823;-4.10845;
1584543412;273124;1127;766224;1584543412;273124;0.6943185;10.53928;0.03351882;
1584543412;351994;1127;844435;1584543412;351994;-6.296751;1.005565;-1.740585;
1584543412;384576;1127;877815;1584543412;384576;-10.61828;-3.287239;-6.80911;
1584543412;487447;1127;979572;1584543412;487447;-3.368642;3.572149;0.3375824;
1584543412;515425;1128;7579;1584543412;515425;-4.948815;1.606509;-0.2681506;
1584543412;536137;1128;28551;1584543412;536137;-8.968679;3.737349;-1.482011;
1584543412;617272;1128;109698;1584543412;617272;-14.97573;0.09337386;5.829881;
1584543412;645500;1128;138512;1584543412;645500;-16.07228;3.021482;3.488352;
1584543412;676006;1128;168188;1584543412;676006;-11.37485;-2.303222;0.5195417;
1584543412;752117;1128;244362;1584543412;752117;-9.689334;0.5865794;-1.158794;
1584543412;783058;1128;279072;1584543412;783058;-5.635951;-0.4955997;-2.449268;
1584543412;867256;1128;365550;1584543412;867256;-11.82017;-1.276109;-3.857059;
1584543412;900037;1128;392481;1584543412;900037;-10.70926;1.137246;-4.400543;
1584543412;982411;1128;474567;1584543412;982411;-1.584962;4.003105;-1.199495;
1584543413;7432;1128;500864;1584543413;7432;-6.212953;2.947262;5.188235;
1584543413;94146;1128;586380;1584543413;94146;-6.157887;4.807557;1.120486;
1584543413;121622;1128;613971;1584543413;121622;-11.93031;3.366247;1.316811;
1584543413;202913;1128;695094;1584543413;202913;-17.80568;5.856217;1.335965;
1584543413;298022;1128;790190;1584543413;298022;-9.109938;1.860295;0.03112462;
1584543413;327423;1128;819590;1584543413;327423;-11.0253;2.681506;-2.245761;
1584543413;407483;1128;899627;1584543413;407483;-7.728483;2.633622;-1.383849;
1584543413;433922;1128;926220;1584543413;433922;-6.995857;3.974375;-3.708618;
1584543413;517237;1129;12915;1584543413;517237;-19.82878;-9.349358;0.009576807;
1584543413;548889;1129;41587;1584543413;548889;-16.10819;-9.045294;0.9744401;
1584543413;572183;1129;71268;1584543413;572183;-2.331952;10.56082;-3.521871;
1584543413;657903;1129;150041;1584543413;657903;-14.39633;0.593762;-2.731784;
1584543413;688680;1129;181248;1584543413;688680;-9.421184;-2.861071;-1.063026;
1584543413;767891;1129;260171;1584543413;767891;-11.41076;-6.684611;1.326388;
1584543413;798111;1129;291160;1584543413;798111;-13.68047;-3.383007;3.155558;
1584543413;824600;1129;317916;1584543413;824600;-13.40992;-1.211466;-1.359907;
1584543413;913046;1129;405438;1584543413;913046;-9.979033;0.9576806;-4.259285;
1584543413;947178;1129;439201;1584543413;947178;-12.61744;0.9409212;-4.721365;
1584543413;970625;1129;462867;1584543413;970625;-12.47618;4.094085;-3.361459;
1584543414;58119;1129;550257;1584543414;58119;-10.88165;0.4836287;-0.7374141;
1584543414;83884;1129;577482;1584543414;83884;-8.880094;1.35033;-4.898537;
1584543414;163135;1129;655262;1584543414;163135;-13.31176;-2.947262;8.094796;
1584543414;193010;1129;685392;1584543414;193010;-11.90397;0.2537854;1.517924;
1584543414;218880;1129;711128;1584543414;218880;-4.572925;0.5195417;2.954445;
1584543414;298232;1129;794172;1584543414;298232;1.359907;5.602432;-5.839458;
1584543414;322877;1129;816400;1584543414;322877;-10.29986;-1.391031;-6.021417;
1584543414;418209;1129;910406;1584543414;418209;-6.347029;0.3663129;-0.8978256;
1584543414;455809;1129;948256;1584543414;455809;-15.75864;-3.957615;-1.115698;
1584543414;538187;1130;30220;1584543414;538187;-2.851494;2.286463;1.47004;
1584543414;623341;1130;115572;1584543414;623341;-16.99404;-5.693411;1.024718;
1584543414;713840;1130;206033;1584543414;713840;-8.054094;3.201048;1.37906;
1584543414;744743;1130;237279;1584543414;744743;-17.52077;-2.731784;-4.972757;
1584543414;840874;1130;333693;1584543414;840874;-3.536236;-0.260968;3.241749;
1584543414;929032;1130;421312;1584543414;929032;-4.920084;3.007117;1.484405;
1584543415;18508;1130;510683;1584543415;18508;-10.11071;-0.617704;3.442862;
1584543415;57578;1130;549864;1584543415;57578;-13.20642;3.507505;1.37906;
1584543415;146450;1130;638633;1584543415;146450;-6.210559;-5.815516;0.9744401;
1584543415;167291;1130;659835;1584543415;167291;-11.5209;-2.619257;-0.2394202;
1584543415;194077;1130;686920;1584543415;194077;-9.471461;-2.183512;-2.047042;
1584543415;273552;1130;765849;1584543415;273552;-9.205706;-3.5099;-3.691859;
1584543415;302493;1130;794669;1584543415;302493;-12.14339;-5.114015;-4.383783;
1584543415;331342;1130;838389;1584543415;331342;-12.46661;-3.25372;2.600103;
1584543415;418607;1130;910764;1584543415;418607;-6.402095;0.1508347;1.266533;
1584543415;515503;1131;8643;1584543415;515503;-3.495534;6.713341;4.896142;
1584543415;604907;1131;97345;1584543415;604907;-15.24149;2.030283;1.70946;
1584543415;631489;1131;136490;1584543415;631489;-15.88313;2.614468;3.964798;
1584543415;724317;1131;216641;1584543415;724317;-9.263166;-4.335899;0.4285621;
1584543415;818082;1131;311463;1584543415;818082;-4.673481;4.860229;1.383849;
1584543415;909631;1131;401999;1584543415;909631;-6.615179;1.836353;-3.761291;
1584543415;934679;1131;426915;1584543415;934679;-5.348647;1.594538;-4.074931;
1584543416;17099;1131;510802;1584543416;17099;-3.203442;6.490681;-2.578555;
1584543416;40415;1131;533146;1584543416;40415;-5.26485;6.610391;-2.616862;
1584543416;140391;1131;632838;1584543416;140391;-16.88391;-5.188235;5.133168;
1584543416;168580;1131;660917;1584543416;168580;-11.59512;4.829105;2.32477;
1584543416;193564;1131;685756;1584543416;193564;-7.180211;-5.77242;2.121263;
1584543416;269764;1131;761952;1584543416;269764;-20.15678;-3.634398;-0.3399766;
1584543416;298068;1131;793209;1584543416;298068;-19.46247;-4.795586;-1.446098;
1584543416;380132;1131;872660;1584543416;380132;-11.63343;-7.2257;-5.949591;
1584543416;410852;1131;903115;1584543416;410852;-9.837774;-5.513846;-7.489063;
1584543416;497435;1131;991116;1584543416;497435;-9.780313;-0.9193735;-6.117185;
1584543416;584861;1132;77157;1584543416;584861;-9.260772;-2.044648;-5.386954;
1584543416;612068;1132;104536;1584543416;612068;-9.583989;-0.806846;-3.402161;
1584543416;700310;1132;192691;1584543416;700310;-12.5528;-6.169858;0.557849;
1584543416;730218;1132;229232;1584543416;730218;-10.47942;-2.899378;-0.7876924;
1584543416;820488;1132;316816;1584543416;820488;-15.08347;-10.10353;2.061408;
1584543416;863299;1132;355237;1584543416;863299;-17.62611;-10.11071;-1.221043;
1584543416;940120;1132;432382;1584543416;940120;-15.6509;-8.923189;4.41012;
1584543416;971375;1132;463647;1584543416;971375;-10.05565;-5.949591;2.329558;
1584543416;999203;1132;491246;1584543416;999203;-6.399701;0.9457096;-1.477222;
1584543417;79922;1132;572699;1584543417;79922;-13.29261;-3.184288;-5.410896;
1584543417;106087;1132;601046;1584543417;106087;-14.2862;-4.88896;-6.110003;
1584543417;214472;1132;706657;1584543417;214472;-12.21761;1.441309;3.643975;
1584543417;305885;1132;798060;1584543417;305885;-13.37401;-1.426944;-6.548141;
1584543417;341399;1132;833651;1584543417;341399;-11.55442;-2.147599;-0.9792285;
1584543417;425804;1132;918026;1584543417;425804;-1.977611;5.272032;0.4908113;
1584543417;453257;1132;948699;1584543417;453257;-9.054871;3.888184;1.821988;
1584543417;535869;1133;28267;1584543417;535869;-6.560112;2.0231;2.573767;
1584543417;552043;1133;44840;1584543417;552043;-3.368642;2.813187;1.422156;
1584543417;646258;1133;138594;1584543417;646258;-6.521805;-0.7350199;7.615955;
1584543417;677304;1133;169851;1584543417;677304;-12.76588;1.752556;3.792415;
1584543417;703235;1133;195288;1584543417;703235;-5.736507;5.853823;-0.9457096;
1584543417;780668;1133;273087;1584543417;780668;-1.297657;2.83234;-4.699818;
1584543417;804186;1133;296528;1584543417;804186;-3.462016;6.80911;-4.383783;
1584543417;885930;1133;378132;1584543417;885930;-6.023811;4.280833;5.26485;
1584543417;914895;1133;410475;1584543417;914895;-1.668759;-0.3112462;1.752556;
1584543418;6539;1133;498718;1584543418;6539;-6.260838;5.133168;6.742072;
1584543418;110603;1133;602785;1584543418;110603;-11.34373;-1.252167;0.7757213;
1584543418;148503;1133;640714;1584543418;148503;-15.78737;1.891419;-2.439692;
1584543418;225985;1133;718441;1584543418;225985;-0.1843535;-0.4764461;1.182736;
1584543418;315924;1133;808217;1584543418;315924;-3.521871;3.289633;-1.898602;
1584543418;411241;1133;903417;1584543418;411241;-8.731653;-4.311957;3.737349;
1584543418;437635;1133;941734;1584543418;437635;-8.731653;0.3016694;0.1340753;
1584543418;530764;1134;22941;1584543418;530764;-13.93665;-5.736507;2.276886;
1584543418;616352;1134;108656;1584543418;616352;-11.67652;5.980716;-6.220136;
1584543418;711822;1134;204170;1584543418;711822;-2.777274;9.050082;-0.9744401;
1584543418;796441;1134;288761;1584543418;796441;-17.21192;-0.6631939;-1.058237;
1584543418;824113;1134;319460;1584543418;824113;-8.063671;-0.9768343;-0.5243301;
1584543418;916819;1134;409207;1584543418;916819;-12.82813;-1.843535;2.430115;
1584543418;942420;1134;434678;1584543418;942420;-7.474698;-0.3375824;1.079785;
1584543419;34270;1134;527271;1584543419;34270;-4.663905;8.013393;3.093308;
1584543419;146554;1134;638689;1584543419;146554;-17.96609;-3.478775;-2.212242;
1584543419;172869;1134;665695;1584543419;172869;-7.69257;-0.5554548;-2.509123;
1584543419;260174;1134;753145;1584543419;260174;-6.203376;2.135628;3.339911;
1584543419;290516;1134;782519;1584543419;290516;-6.279991;8.2169;1.460463;
1584543419;372267;1134;864669;1584543419;372267;-2.27928;9.64145;2.930503;
1584543419;400706;1134;893133;1584543419;400706;-5.307945;9.55047;-0.08140285;
1584543419;426971;1134;919125;1584543419;426971;-7.486669;-3.064578;3.605668;
1584543419;522482;1135;14681;1584543419;522482;-4.711789;10.02213;-4.685452;
1584543419;607079;1135;99520;1584543419;607079;-17.73146;3.244143;-0.2106898;
1584543419;633199;1135;125711;1584543419;633199;-11.28866;-2.612074;-3.320758;
1584543419;722462;1135;214858;1584543419;722462;-8.477868;-4.247314;-4.879383;
1584543419;755472;1135;248058;1584543419;755472;-16.23269;-1.594538;0.213084;
1584543419;837138;1135;329407;1584543419;837138;-6.624756;-5.262455;-0.8619126;
1584543419;932653;1135;425056;1584543419;932653;-4.666299;0.5889736;2.449268;
1584543420;37408;1135;530754;1584543420;37408;-3.505111;8.037335;-4.690241;
1584543420;63920;1135;561044;1584543420;63920;-5.990293;3.94325;-0.9840169;
1584543420;155736;1135;648775;1584543420;155736;-8.429984;1.163582;-4.675876;
1584543420;182542;1135;674764;1584543420;182542;-12.57914;2.365471;-5.609614;
1584543420;272063;1135;764449;1584543420;272063;-6.612785;5.77242;-0.05506664;
1584543420;294895;1135;788136;1584543420;294895;-3.512294;5.449203;-2.686294;
1584543420;377602;1135;870084;1584543420;377602;-5.171475;-0.3136404;2.937685;
1584543420;405935;1135;897954;1584543420;405935;-2.166753;2.719813;6.035782;
1584543420;429473;1135;922186;1584543420;429473;-11.94946;-2.492364;-9.148245;
1584543420;521102;1136;14354;1584543420;521102;-6.495469;6.940791;-3.078943;
1584543420;543703;1136;36154;1584543420;543703;-2.640805;5.56173;-1.156399;
1584543420;571534;1136;64663;1584543420;571534;-8.762778;2.659958;0.4548983;
1584543420;662528;1136;155585;1584543420;662528;-12.81377;-6.607996;-3.507505;
1584543420;688060;1136;180428;1584543420;688060;-13.65653;-5.509058;0.356736;
1584543420;767845;1136;263074;1584543420;767845;-14.88236;-0.9313444;-5.509058;
1584543420;793029;1136;288101;1584543420;793029;-17.73146;-3.280056;-3.323152;
1584543420;878421;1136;370417;1584543420;878421;-5.039794;0.3399766;1.788469;
1584543420;906030;1136;401284;1584543420;906030;-8.238448;6.167463;1.266533;
1584543420;987694;1136;480009;1584543420;987694;-6.469133;1.606509;3.13401;
1584543421;18310;1136;528975;1584543421;18310;-6.10282;6.124368;2.8491;
1584543421;114399;1136;606688;1584543421;114399;-6.641515;2.971204;3.021482;
1584543421;139800;1136;632316;1584543421;139800;-7.52737;4.924873;5.722142;
1584543421;229984;1136;722265;1584543421;229984;-13.34289;-7.613561;-3.004723;
1584543421;317525;1136;809883;1584543421;317525;-10.74518;5.839458;-0.09816227;
1584543421;342500;1136;834678;1584543421;342500;-6.754043;6.076484;3.89776;
1584543421;368127;1136;861831;1584543421;368127;-12.40436;-1.927332;-7.25922;
1584543421;462477;1136;958139;1584543421;462477;-8.863335;-2.753332;5.245696;
1584543421;558359;1137;52019;1584543421;558359;-5.683835;4.103662;0.878672;
1584543421;643772;1137;145066;1584543421;643772;-6.042965;3.256114;-0.5961562;
1584543421;738274;1137;230667;1584543421;738274;-5.655104;2.20506;-3.380613;
1584543421;772151;1137;265224;1584543421;772151;-8.956708;3.093308;1.73819;
1584543421;854695;1137;346950;1584543421;854695;-5.662287;1.484405;0.7517793;
1584543421;889916;1137;383908;1584543421;889916;-5.269638;2.657564;-0.4189853;
1584543421;972117;1137;464775;1584543421;972117;-22.73055;-2.602497;-6.464345;
1584543422;65;1137;492540;1584543422;65;-7.467515;1.091756;-4.10845;
1584543422;98497;1137;590319;1584543422;98497;-21.57655;0.3064578;-2.382231;
1584543422;122549;1137;614997;1584543422;122549;-18.88546;-1.532289;-2.597709;
1584543422;212084;1137;705394;1584543422;212084;-6.754043;-1.455675;-2.042254;
1584543422;294479;1137;786810;1584543422;294479;-0.794875;7.642292;-4.699818;
1584543422;319344;1137;811527;1584543422;319344;-14.12579;-5.619191;-5.904101;
1584543422;399173;1137;891343;1584543422;399173;-5.226542;-3.58412;-0.272939;
1584543422;426485;1137;925609;1584543422;426485;-8.499416;5.880159;-1.482011;
1584543422;518822;1138;11030;1584543422;518822;-11.62624;1.127669;-2.966416;
1584543422;609163;1138;101661;1584543422;609163;-8.477868;6.100426;-0.5195417;
1584543422;694558;1138;186884;1584543422;694558;-6.754043;2.56419;1.000776;
1584543422;723503;1138;215692;1584543422;723503;-11.74356;-1.252167;0.9576806;
1584543422;814769;1138;310190;1584543422;814769;-14.74828;-4.39336;1.331176;
1584543422;909135;1138;401790;1584543422;909135;-15.14093;0.1173159;-7.848193;
1584543422;951515;1138;443855;1584543422;951515;-7.37893;-0.878672;-4.163517;
1584543423;50054;1138;542172;1584543423;50054;-11.10431;2.449268;-1.613692;
1584543423;70543;1138;562852;1584543423;70543;-3.019088;0.4572925;0.5674258;
1584543423;154172;1138;646303;1584543423;154172;-9.497798;2.504335;-2.102109;
1584543423;174516;1138;666706;1584543423;174516;0.878672;4.065354;2.911349;
1584543423;255154;1138;747298;1584543423;255154;-7.098808;1.137246;-4.247314;
1584543423;276288;1138;768842;1584543423;276288;-6.603208;4.177882;1.312023;
1584543423;305121;1138;797503;1584543423;305121;-12.87362;-3.74932;4.242526;
1584543423;331767;1138;839423;1584543423;331767;-9.064447;-0.05746084;-1.711854;
1584543423;428363;1138;920848;1584543423;428363;-11.19289;-0.4381389;0.2944868;
1584543423;514484;1139;6806;1584543423;514484;-14.80095;-1.958457;1.01993;
1584543423;544716;1139;37989;1584543423;544716;-6.021417;-3.653552;2.995146;
1584543423;568157;1139;61044;1584543423;568157;-10.6925;5.456386;2.925714;
1584543423;592594;1139;88320;1584543423;592594;-6.53617;1.247379;-4.232948;
1584543423;690205;1139;182254;1584543423;690205;-19.11052;-6.198588;-1.357512;
1584543423;769943;1139;262063;1584543423;769943;-9.074024;-2.726996;0.1053449;
1584543423;799353;1139;292504;1584543423;799353;-8.147469;2.533065;1.115698;
1584543423;821473;1139;313938;1584543423;821473;-8.192958;3.011906;-3.888184;
1584543423;915179;1139;407383;1584543423;915179;-15.14572;3.998317;1.776498;
1584543424;5489;1139;497846;1584543424;5489;-11.24078;-3.378219;-6.849811;
1584543424;110540;1139;602743;1584543424;110540;-7.838616;5.279215;-4.778827;
1584543424;140809;1139;634143;1584543424;140809;-14.81771;3.198653;-2.626439;
1584543424;162550;1139;654795;1584543424;162550;-6.265626;-2.336741;2.698265;
1584543424;178082;1139;670349;1584543424;178082;-12.53365;-3.383007;-1.915361;
1584543424;259935;1139;752347;1584543424;259935;-10.18733;-0.9217677;2.468422;
1584543424;274519;1139;766696;1584543424;274519;0.5267243;9.464279;1.316811;
1584543424;292297;1139;798320;1584543424;292297;-9.229648;5.537788;0.6799533;
1584543424;375287;1139;867537;1584543424;375287;-6.208165;5.154716;-3.440468;
1584543424;390520;1139;883097;1584543424;390520;-12.31338;4.654328;2.978387;
1584543424;475706;1139;968029;1584543424;475706;-9.193734;1.886631;-2.717419;
1584543424;565658;1140;58016;1584543424;565658;-8.887277;-1.96564;2.066196;
1584543424;582921;1140;75177;1584543424;582921;-11.02051;2.070984;1.910573;
1584543424;613565;1140;105811;1584543424;613565;-12.68448;1.92015;-4.802769;
1584543424;631002;1140;134044;1584543424;631002;-6.019023;8.173804;2.822764;
1584543424;720718;1140;213148;1584543424;720718;-8.817844;-2.37026;3.993528;
1584543424;749309;1140;241889;1584543424;749309;-9.296685;-3.078943;1.237802;
1584543424;766492;1140;258667;1584543424;766492;-8.554482;6.584054;2.853888;
1584543424;782851;1140;275388;1584543424;782851;-4.019865;1.122881;0.782904;
1584543424;799945;1140;295904;1584543424;799945;-12.6773;-0.248997;-1.78368;
1584543424;880806;1140;373109;1584543424;880806;-19.73062;-3.098097;-1.292869;
1584543424;898074;1140;390340;1584543424;898074;-12.66772;-5.030218;-0.308852;
1584543424;980745;1140;473052;1584543424;980745;-9.873688;-1.340753;5.525817;
1584543424;996025;1140;488470;1584543424;996025;-7.127538;2.671929;-0.01197101;
1584543425;96023;1140;588551;1584543425;96023;-0.866701;7.93199;1.625663;
1584543425;120368;1140;619098;1584543425;120368;-5.284003;5.250484;4.333505;
1584543425;205919;1140;699314;1584543425;205919;-10.28788;-4.52983;-4.414908;
1584543425;228435;1140;720645;1584543425;228435;-11.33176;-5.485116;-5.851429;
1584543425;311159;1140;803360;1584543425;311159;-9.560047;10.38844;10.3238;
1584543425;334953;1140;827429;1584543425;334953;-10.29028;1.778892;1.917755;
1584543425;436734;1140;938698;1584543425;436734;-7.551312;-3.694253;-1.082179;
1584543425;467075;1140;959617;1584543425;467075;-5.547365;1.812411;-4.534618;
1584543425;483298;1140;975612;1584543425;483298;-9.502586;2.025495;-6.090849;
1584543425;499354;1140;991567;1584543425;499354;-13.12262;6.947973;4.278439;
1584543425;514780;1141;6988;1584543425;514780;-11.41076;5.267244;-1.04866;
1584543425;596126;1141;88462;1584543425;596126;-5.643133;0.4955997;-3.41892;
1584543425;611018;1141;103202;1584543425;611018;-13.83609;-3.29921;0.4309563;
1584543425;691758;1141;184079;1584543425;691758;-17.84398;-0.7972692;-0.01675941;
1584543425;706640;1141;198837;1584543425;706640;-10.06762;-0.296881;-0.03591302;
1584543425;726279;1141;228074;1584543425;726279;-13.89834;-1.295263;4.685452;
1584543425;816540;1141;308862;1584543425;816540;-10.97502;-5.00867;-1.690306;
1584543425;901542;1141;393996;1584543425;901542;-6.0286;1.335965;4.369418;
1584543425;918904;1141;411180;1584543425;918904;-18.23663;5.506664;2.822764;
1584543426;101902;1141;594144;1584543426;101902;-9.483433;-0.8259996;-2.961627;
1584543426;120722;1141;613161;1584543426;120722;0.3112462;0.5171475;-3.337517;
1584543426;216809;1141;709191;1584543426;216809;-5.631162;2.152387;3.114856;
1584543426;233244;1141;746081;1584543426;233244;2.470816;9.351751;1.778892;
1584543426;326570;1141;818802;1584543426;326570;-6.476315;-3.457227;-3.169923;
1584543426;422026;1141;914260;1584543426;422026;-8.83221;0.794875;1.012747;
1584543426;459498;1141;951515;1584543426;459498;-18.11213;-2.310405;3.552995;
1584543426;532129;1142;24545;1584543426;532129;-10.50815;5.868188;5.161899;
1584543426;627446;1142;119660;1584543426;627446;-10.35732;3.96001;3.926491;
1584543426;721657;1142;214198;1584543426;721657;-3.246537;7.393295;2.870648;
1584543426;838048;1142;336662;1584543426;838048;-13.34289;-1.053449;-5.243302;
1584543426;936894;1142;429154;1584543426;936894;-9.560047;-5.181052;0.2753332;
1584543427;32101;1142;524570;1584543427;32101;-16.58703;2.501941;0.6584055;
1584543427;127618;1142;619933;1584543427;127618;-10.46027;1.90339;-6.653486;
1584543427;222261;1142;714533;1584543427;222261;-9.500193;-1.549048;0.3184288;
1584543427;243207;1142;735413;1584543427;243207;-6.754043;1.529895;-0.2920926;
1584543427;337591;1142;829888;1584543427;337591;-15.21036;-0.2035071;-13.15135;
1584543427;432384;1142;924707;1584543427;432384;-12.85207;-4.67827;-6.138733;
1584543427;476574;1142;970271;1584543427;476574;-5.760449;0.533907;0.3399766;
1584543427;576788;1143;69205;1584543427;576788;-1.419762;4.01747;-3.878607;
1584543427;596736;1143;89144;1584543427;596736;-10.57998;2.691083;-4.582502;
1584543427;621385;1143;113756;1584543427;621385;-9.519346;5.571307;0.04309563;
1584543427;642345;1143;134540;1584543427;642345;-16.34043;-3.720589;2.935291;
1584543427;737592;1143;229970;1584543427;737592;-7.513005;-0.004788403;0.2896984;
1584543427;837930;1143;338179;1584543427;837930;-10.23761;-0.3758897;2.147599;
1584543427;938237;1143;430376;1584543427;938237;-17.30768;-4.125209;-5.798757;
1584543427;970889;1143;463549;1584543427;970889;-22.72576;-6.344635;-5.334281;
1584543428;58194;1143;565580;1584543428;58194;-4.66151;-1.812411;-5.583278;
1584543428;153206;1143;645471;1584543428;153206;-6.129156;-0.6751649;-2.557007;
1584543428;253294;1143;745573;1584543428;253294;-16.25423;-2.449268;0.56982;
1584543428;348302;1143;840576;1584543428;348302;-8.401254;2.827552;-3.303998;
1584543428;448489;1143;940758;1584543428;448489;-8.702923;0.1651999;-0.08858546;
1584543428;533538;1144;25911;1584543428;533538;-5.98311;-2.224213;0.4046201;
1584543428;563813;1144;65533;1584543428;563813;-7.632715;2.513912;-0.06943185;
1584543428;658234;1144;150380;1584543428;658234;-7.773973;-2.937685;-1.987187;
1584543428;760362;1144;252752;1584543428;760362;-16.11298;-5.346252;1.881842;
1584543428;858375;1144;350537;1584543428;858375;-4.311957;4.520253;0.2825158;
1584543428;953863;1144;445836;1584543428;953863;-16.04354;-5.501875;-4.204218;
1584543428;988840;1144;481096;1584543428;988840;-12.12663;-4.505888;-5.013458;
1584543429;81363;1144;574759;1584543429;81363;-0.2059013;2.662352;-4.10845;
1584543429;163472;1144;655627;1584543429;163472;-3.720589;3.809175;-0.6153098;
1584543429;262160;1144;754320;1584543429;262160;-4.747702;-1.678335;-0.9816227;
1584543429;362120;1144;854350;1584543429;362120;-13.72356;3.090914;3.1795;
1584543429;462258;1144;954424;1584543429;462258;-4.534618;1.877054;-0.6248866;
1584543429;554049;1145;46251;1584543429;554049;-1.249773;6.509834;1.352724;
1584543429;580904;1145;79464;1584543429;580904;1.130063;7.208941;2.255338;
1584543429;664299;1145;156598;1584543429;664299;-20.39141;-8.693346;-2.255338;
1584543429;755154;1145;247395;1584543429;755154;-11.94467;0.8714894;0.7350199;
1584543429;778721;1145;278132;1584543429;778721;-15.93102;-2.015918;-0.8571242;
1584543429;864708;1145;357003;1584543429;864708;-11.78187;-2.477999;-4.721365;
1584543429;959236;1145;451533;1584543429;959236;-18.69872;-3.61285;0.2896984;
1584543429;991315;1145;484376;1584543429;991315;-15.29177;-3.129222;-5.197812;
1584543430;78540;1145;570585;1584543430;78540;-10.37408;1.45328;4.082114;
1584543430;159648;1145;651929;1584543430;159648;-21.83751;0.7422025;3.280056;
1584543430;191612;1145;684925;1584543430;191612;-19.79765;1.309628;4.771644;
1584543430;269816;1145;762040;1584543430;269816;-6.31351;4.118027;-2.329558;
1584543430;371103;1145;863418;1584543430;371103;-11.02769;-0.7134721;1.941698;
1584543430;460056;1145;952407;1584543430;460056;-5.185841;-2.296039;1.450886;
1584543430;486464;1145;978747;1584543430;486464;-11.04206;2.372654;3.536236;
1584543430;574613;1146;66847;1584543430;574613;-18.41141;0.3998317;2.274492;
1584543430;659256;1146;151430;1584543430;659256;-8.149862;8.793902;-10.0748;
1584543430;681494;1146;174862;1584543430;681494;-5.439626;3.754108;-4.204218;
1584543430;765044;1146;257352;1584543430;765044;-3.945644;1.323994;-0.3998317;
1584543430;791202;1146;290967;1584543430;791202;-4.268862;1.685518;-2.829946;
1584543430;884871;1146;377261;1584543430;884871;-10.02931;-2.126051;-0.5315128;
1584543430;990540;1146;482594;1584543430;990540;-10.66377;5.255273;-0.3878607;
1584543431;21256;1146;514877;1584543431;21256;-10.91516;2.466028;-3.955221;
1584543431;115027;1146;607225;1584543431;115027;-6.86657;-1.678335;-5.753267;
1584543431;143973;1146;636418;1584543431;143973;-13.36204;-8.267179;-5.513846;
1584543431;230578;1146;722806;1584543431;230578;-10.01973;6.318298;3.126827;
1584543431;320497;1146;816754;1584543431;320497;-10.05565;0.5913678;-3.184288;
1584543431;415991;1146;908429;1584543431;415991;-11.21205;5.62398;-3.713407;
1584543431;511306;1147;3485;1584543431;511306;-8.413224;-10.80024;-1.984793;
1584543431;548379;1147;40640;1584543431;548379;-14.20959;-11.19768;-1.584962;
1584543431;629905;1147;121984;1584543431;629905;-8.463503;3.433285;3.768473;
1584543431;720827;1147;213266;1584543431;720827;-14.81293;-4.321534;-1.702277;
1584543431;821323;1147;313737;1584543431;821323;-16.30691;-4.39336;6.28478;
1584543431;851913;1147;344422;1584543431;851913;-10.04368;-1.359907;4.201824;
1584543431;934516;1147;426702;1584543431;934516;-11.09713;-0.3806781;0.4333505;
1584543432;47419;1147;543451;1584543432;47419;-8.350975;1.707066;-2.176329;
1584543432;75352;1147;567572;1584543432;75352;-8.190564;-1.539472;-2.942474;
1584543432;100698;1147;593496;1584543432;100698;-8.633492;2.061408;-5.090073;
1584543432;186516;1147;682833;1584543432;186516;-14.93503;-5.329493;2.243367;
1584543432;276134;1147;768732;1584543432;276134;-7.723694;-3.423708;8.408436;
1584543432;302043;1147;794355;1584543432;302043;-11.55681;-3.622427;-5.659893;
1584543432;386514;1147;882620;1584543432;386514;-13.91989;-3.076549;-5.003881;
1584543432;411701;1147;910983;1584543432;411701;-20.48958;-6.876147;1.685518;
1584543432;501839;1147;994048;1584543432;501839;-13.54879;-1.896208;-3.651158;
1584543432;532959;1148;28412;1584543432;532959;-5.23133;3.634398;-0.7302315;
1584543432;627064;1148;119282;1584543432;627064;-13.07713;-7.129932;-1.745373;
1584543432;727487;1148;219995;1584543432;727487;-19.77611;-3.696647;-1.704672;
1584543432;825975;1148;318165;1584543432;825975;-9.49301;0.6248866;-4.240131;
1584543433;2007;1148;494239;1584543433;2007;-13.19205;-1.826776;-7.57286;
1584543433;28432;1148;521612;1584543433;28432;-27.11433;-7.422025;-1.740585;
1584543433;121905;1148;620985;1584543433;121905;-6.363788;-4.865018;5.398925;
1584543433;221903;1148;719319;1584543433;221903;-13.06516;-4.110844;-2.554613;
1584543433;316801;1148;809131;1584543433;316801;-23.13757;-10.46266;3.569755;
1584543433;349317;1148;841779;1584543433;349317;-11.25275;2.181118;-2.056619;
1584543433;434409;1148;926660;1584543433;434409;-7.836222;2.48997;2.047042;
1584543433;517005;1149;9386;1584543433;517005;-11.42752;5.056554;-0.8236054;
1584543433;612149;1149;104560;1584543433;612149;-10.52491;-1.623269;-3.56736;
1584543433;653440;1149;145675;1584543433;653440;-11.27908;-0.248997;-1.776498;
1584543433;727180;1149;226657;1584543433;727180;-11.4778;0.09576806;-3.562572;
1584543433;827635;1149;340006;1584543433;827635;-3.766079;1.225831;-2.336741;
1584543433;943131;1149;435652;1584543433;943131;-17.08502;-4.27365;-5.164293;
1584543433;972229;1149;464964;1584543433;972229;-24.2365;-5.810728;-3.349488;
1584543434;53987;1149;546278;1584543434;53987;0.002394202;4.15394;3.416526;
1584543434;78881;1149;571170;1584543434;78881;-7.33344;5.176264;-1.991976;
1584543434;105159;1149;597393;1584543434;105159;3.160346;9.083601;4.07972;
1584543434;128137;1149;620687;1584543434;128137;-8.475473;-2.5187;-3.667917;
1584543434;227672;1149;719996;1584543434;227672;-13.73314;0.3040636;-8.810662;
1584543434;322284;1149;814578;1584543434;322284;-8.714894;0.1795651;-3.093308;
1584543434;417889;1149;910086;1584543434;417889;-13.97974;-5.415684;-1.323994;
1584543434;436940;1149;949800;1584543434;436940;-10.81221;1.084573;-2.99754;
1584543434;537810;1150;48624;1584543434;537810;-9.5385;4.551377;-4.223372;
1584543434;659114;1150;152106;1584543434;659114;-7.060501;-2.092532;4.563348;
1584543434;743769;1150;236150;1584543434;743769;-18.16002;-0.004788403;-4.278439;
1584543434;833373;1150;335006;1584543434;833373;-10.98699;3.785233;-2.669535;
1584543434;932340;1150;424626;1584543434;932340;-1.254562;4.161122;3.689465;
1584543435;18452;1150;510774;1584543435;18452;2.928109;8.607155;5.286397;
1584543435;47303;1150;539463;1584543435;47303;-7.951144;3.507505;2.712631;
1584543435;143300;1150;635434;1584543435;143300;-7.963115;0.794875;3.617639;
1584543435;242936;1150;735010;1584543435;242936;-3.521871;4.005499;-1.283292;
1584543435;342776;1150;834873;1584543435;342776;-10.81461;1.975216;0.7278373;
1584543435;442893;1150;934979;1584543435;442893;-8.463503;1.671153;-2.542642;
1584543435;536796;1151;29134;1584543435;536796;-11.29824;0.7182605;1.154005;
1584543435;568963;1151;61232;1584543435;568963;-7.678205;-0.5243301;-5.659893;
1584543435;648629;1151;140905;1584543435;648629;-9.107543;1.328782;3.98874;
1584543435;748634;1151;240934;1584543435;748634;-5.272032;-0.2082955;-7.60159;
1584543435;782651;1151;274682;1584543435;782651;-15.66526;-0.9696517;-1.960851;
1584543435;803679;1151;296958;1584543435;803679;-10.34295;5.195417;4.388572;
1584543435;831439;1151;323721;1584543435;831439;-20.78407;-2.868254;4.15394;
1584543435;938021;1151;430185;1584543435;938021;-8.389282;3.375824;2.035071;
1584543435;958321;1151;462025;1584543435;958321;-16.61097;-3.11725;2.3535;
1584543436;48618;1151;540914;1584543436;48618;-7.302315;-2.372654;0.1580173;
1584543436;134131;1151;634414;1584543436;134131;-4.876989;4.158728;0.2298434;
1584543436;172134;1151;665138;1584543436;172134;-5.240908;5.00867;7.814674;
1584543436;257381;1151;749717;1584543436;257381;-6.663063;-2.837129;-3.801992;
1584543436;349138;1151;841461;1584543436;349138;-16.08664;2.355894;-0.533907;
1584543436;453937;1151;946149;1584543436;453937;-16.67562;2.619257;2.310405;
1584543436;486911;1151;979073;1584543436;486911;-15.54076;-3.320758;3.471592;
1584543436;508749;1152;1182;1584543436;508749;-7.163451;1.697489;3.660734;
1584543436;532700;1152;25177;1584543436;532700;-23.85822;1.201889;1.405396;
1584543436;614078;1152;110239;1584543436;614078;-6.914454;1.046266;4.465186;
1584543436;699680;1152;192054;1584543436;699680;-8.358158;0.2777274;1.465251;
1584543436;728638;1152;221127;1584543436;728638;-5.209783;0.213084;5.523423;
1584543436;809075;1152;301571;1584543436;809075;-8.11395;4.74052;3.96001;
1584543436;842564;1152;334720;1584543436;842564;-9.275137;1.94888;3.1795;
1584543436;934112;1152;426326;1584543436;934112;-11.41795;0.5171475;-0.2226608;
1584543436;954495;1152;446657;1584543436;954495;-10.97981;0.6967127;-1.941698;
1584543437;39665;1152;532033;1584543437;39665;-8.396465;1.860295;1.079785;
1584543437;60504;1152;553031;1584543437;60504;-4.390966;1.264138;-1.549048;
1584543437;144229;1152;636533;1584543437;144229;-8.204929;-0.3711013;0.7326257;
1584543437;164140;1152;656578;1584543437;164140;-0.9959879;0.9265561;-1.63524;
1584543437;249956;1152;742259;1584543437;249956;-9.165004;2.717419;3.969586;
1584543437;270470;1152;762659;1584543437;270470;-8.927978;7.125144;-0.9265561;
1584543437;374645;1152;878860;1584543437;374645;-5.11162;5.420473;-0.3782839;
1584543437;470067;1152;962317;1584543437;470067;-9.694122;-0.1053449;-2.090138;
1584543437;554933;1153;47104;1584543437;554933;-5.389348;-3.541024;1.027112;
1584543437;574723;1153;67599;1584543437;574723;-8.054094;-2.669535;-1.199495;
1584543437;659711;1153;152027;1584543437;659711;-18.35874;-0.3064578;0.4548983;
1584543437;691244;1153;184149;1584543437;691244;-12.59589;1.175553;-1.70946;
1584543437;765101;1153;257405;1584543437;765101;-5.329493;1.843535;-3.380613;
1584543437;850145;1153;342293;1584543437;850145;-12.90235;-12.52886;-3.936068;
1584543437;869649;1153;362044;1584543437;869649;-14.83687;-12.01889;-1.225831;
1584543437;960646;1153;453126;1584543437;960646;-4.5418;1.103727;-4.027047;
1584543437;982482;1153;485270;1584543437;982482;-10.02213;-7.580042;0.3854665;
1584543438;73765;1153;576026;1584543438;73765;-7.230489;-1.649605;3.083732;
1584543438;175703;1153;668191;1584543438;175703;-8.140285;5.621585;-0.9169793;
1584543438;207642;1153;700392;1584543438;207642;-11.25993;4.122815;-4.146757;
1584543438;235836;1153;734720;1584543438;235836;-12.41154;-5.238513;-3.129222;
1584543438;315887;1153;808458;1584543438;315887;-4.850653;3.639187;-1.058237;
1584543438;410916;1153;903141;1584543438;410916;-11.24317;-4.462792;-4.065354;
1584543438;449044;1153;941329;1584543438;449044;-14.91588;0.9935937;1.529895;
1584543438;525532;1154;17853;1584543438;525532;-8.987833;-1.814805;-1.932121;
1584543438;611178;1154;103420;1584543438;611178;-10.29746;4.479551;5.801151;
1584543438;695376;1154;201067;1584543438;695376;-7.951144;-2.60968;-0.1244985;
1584543438;785952;1154;278218;1584543438;785952;-20.88941;-4.757279;-1.553837;
1584543438;875995;1154;381218;1584543438;875995;-16.16565;-7.261614;-1.371878;
1584543438;975806;1154;468480;1584543438;975806;-9.667787;1.833959;-1.005565;
1584543438;998875;1154;501643;1584543438;998875;-10.58955;0.3495534;1.886631;
1584543439;86031;1154;578281;1584543439;86031;-6.086061;0.7613561;1.611298;
1584543439;176099;1154;668933;1584543439;176099;-11.39879;-1.968034;2.820369;
1584543439;197359;1154;690131;1584543439;197359;-6.023811;-3.957615;-2.252944;
1584543439;286187;1154;778471;1584543439;286187;-3.519476;-3.971981;-1.757344;
1584543439;318910;1154;811186;1584543439;318910;-8.051701;-2.853888;-3.888184;
1584543439;418060;1154;910391;1584543439;418060;-8.868123;-0.06464344;-0.866701;
1584543439;501044;1154;993481;1584543439;501044;-7.809886;7.563283;9.404424;
1584543439;597615;1155;90136;1584543439;597615;-3.945644;11.80581;1.656788;
1584543439;681311;1155;173692;1584543439;681311;-12.87362;4.165911;-2.94008;
1584543439;720595;1155;214479;1584543439;720595;-8.446743;2.705448;-6.677428;
1584543439;822944;1155;315259;1584543439;822944;-7.726089;7.208941;-1.103727;
1584543439;906846;1155;423126;1584543439;906846;-0.3711013;1.462857;0.2561796;
1584543440;11577;1155;513701;1584543440;11577;-6.619967;3.952827;-0.1125275;
1584543440;111624;1155;604453;1584543440;111624;-11.643;-2.844311;-1.999158;
1584543440;206955;1155;699187;1584543440;206955;-9.279925;-1.525106;5.827487;
1584543440;302698;1155;794984;1584543440;302698;-4.139575;0.9864111;1.154005;
1584543440;402100;1155;894298;1584543440;402100;-9.193734;-1.628057;-0.3303998;
1584543440;502179;1155;994358;1584543440;502179;-8.374917;4.802769;-2.406173;
1584543440;588287;1156;81630;1584543440;588287;-12.36845;-1.604115;7.685387;
1584543440;609919;1156;102181;1584543440;609919;-10.50815;-3.25372;2.499547;
1584543440;707146;1156;199489;1584543440;707146;-21.36586;-0.9121909;-6.064513;
1584543440;807780;1156;300186;1584543440;807780;-15.66287;-3.715801;0.1388637;
1584543440;907324;1156;426189;1584543440;907324;-6.17704;3.643975;-0.7086837;
1584543441;17896;1156;510393;1584543441;17896;-12.52886;-4.070143;2.281674;
1584543441;117409;1156;609722;1584543441;117409;-4.302381;3.105279;-6.780379;
1584543441;222138;1156;725604;1584543441;222138;-16.848;-5.463568;-1.16837;
1584543441;322787;1156;815270;1584543441;322787;-8.793902;-1.434127;2.190695;
1584543441;422571;1156;915053;1584543441;422571;-1.900996;-0.6200982;1.388637;
1584543441;531470;1157;23665;1584543441;531470;-6.184223;2.935291;-3.416526;
1584543441;631720;1157;124118;1584543441;631720;-5.070919;1.285686;-7.943961;
1584543441;732064;1157;224324;1584543441;732064;-19.56063;-12.20325;2.571373;
1584543441;827655;1157;323185;1584543441;827655;-9.418789;-1.031901;-1.369483;
1584543441;942731;1157;436105;1584543441;942731;0.1388637;1.865083;1.623269;
1584543442;40828;1157;533286;1584543442;40828;-7.307104;-0.7757213;-5.544971;
1584543442;144383;1157;652515;1584543442;144383;-6.505046;2.817975;-1.601721;
1584543442;243821;1157;751612;1584543442;243821;-3.840299;2.154782;3.892972;
1584543442;343431;1157;835591;1584543442;343431;-15.31571;-0.56982;-0.6823475;
1584543442;441835;1157;934017;1584543442;441835;-7.477092;1.884237;2.523489;
1584543442;542542;1158;34719;1584543442;542542;-17.25262;-5.353435;1.118092;
1584543442;644773;1158;137274;1584543442;644773;-4.517859;0.1747767;2.063802;
1584543442;747106;1158;239284;1584543442;747106;-10.59195;1.151611;3.622427;
1584543442;843356;1158;335476;1584543442;843356;-11.04685;2.506729;3.620033;
1584543442;933888;1158;426075;1584543442;933888;-4.249708;-0.9935937;-4.627992;
1584543442;968455;1158;463124;1584543442;968455;-11.82257;-2.331952;-0.5434838;
1584543443;49586;1158;546279;1584543443;49586;-16.78335;-3.77805;3.406949;
1584543443;139096;1158;631526;1584543443;139096;-10.95347;7.216124;-1.558625;
1584543443;234105;1158;726364;1584543443;234105;-11.99016;-0.842759;5.451597;
1584543443;334225;1158;826506;1584543443;334225;-11.23599;-0.2944868;1.733402;
1584543443;443214;1158;935633;1584543443;443214;-9.370905;0.8643068;-3.70383;
1584543443;544548;1159;40270;1584543443;544548;-8.432378;1.817199;0.6129156;
1584543443;664383;1159;156786;1584543443;664383;-20.11369;-13.42429;1.201889;
1584543443;749319;1159;249359;1584543443;749319;-3.895366;-1.35033;-5.023035;
1584543443;849962;1159;350051;1584543443;849962;-7.560889;3.280056;3.854665;
1584543443;949474;1159;445329;1584543443;949474;-12.09072;0.9792285;-4.426879;
1584543444;39835;1159;532132;1584543444;39835;-12.40915;2.39899;-1.134852;
1584543444;135200;1159;627369;1584543444;135200;-17.1353;-6.545747;0.7254431;
1584543444;166136;1159;659091;1584543444;166136;-11.29345;-2.80361;0.5003881;
1584543444;250135;1159;742322;1584543444;250135;-18.20551;-5.363012;-6.368577;
1584543444;349955;1159;842142;1584543444;349955;-18.98363;-6.330269;5.894525;
1584543444;445025;1159;937305;1584543444;445025;-14.25986;-2.794033;3.648763;
1584543444;549984;1160;44425;1584543444;549984;-2.664747;9.334992;4.082114;
1584543444;650099;1160;142272;1584543444;650099;-7.845799;-1.721431;-1.221043;
1584543444;740298;1160;232702;1584543444;740298;-11.90636;3.495534;4.802769;
1584543444;840374;1160;332678;1584543444;840374;-14.29817;-0.4788403;2.149993;
1584543444;872035;1160;365117;1584543444;872035;-6.943185;4.489128;6.172252;
1584543444;960359;1160;465461;1584543444;960359;-17.15446;-5.935226;-0.950498;
1584543445;60360;1160;564809;1584543445;60360;-1.177947;2.597709;-1.482011;
1584543445;160400;1160;661060;1584543445;160400;-12.57195;-2.140416;-2.794033;
1584543445;255227;1160;747421;1584543445;255227;-11.77947;-1.960851;0.7757213;
1584543445;340543;1160;832824;1584543445;340543;-13.31416;0.3303998;-4.235343;
1584543445;371297;1160;864727;1584543445;371297;-10.53209;3.488352;5.449203;
1584543445;460759;1160;957809;1584543445;460759;-6.28478;5.382165;5.286397;
1584543445;555922;1161;48227;1584543445;555922;-11.08994;5.918467;1.711854;
1584543445;640981;1161;134660;1584543445;640981;-8.753201;4.048595;3.289633;
1584543445;736341;1161;228440;1584543445;736341;-13.39316;-2.537854;-2.442086;
1584543445;757994;1161;250273;1584543445;757994;-6.229712;-0.7062895;-3.734955;
1584543445;785995;1161;278267;1584543445;785995;-5.17387;-1.029507;-5.944803;
1584543445;876410;1161;368971;1584543445;876410;-11.70046;1.096544;-4.675876;
1584543445;973572;1161;468829;1584543445;973572;-11.93509;2.80361;4.027047;
1584543446;7789;1161;501285;1584543446;7789;-9.090784;2.406173;-0.7900866;
1584543446;91170;1161;583439;1584543446;91170;-7.120356;-2.070984;-1.089362;
1584543446;176490;1161;672107;1584543446;176490;-8.779537;2.576161;3.131616;
1584543446;266292;1161;762687;1584543446;266292;-12.65575;-3.385401;-2.990358;
1584543446;356362;1161;848657;1584543446;356362;-10.82658;0.8331822;0.8762778;
1584543446;451484;1161;943675;1584543446;451484;-6.909666;1.817199;-1.42455;
1584543446;468960;1161;965101;1584543446;468960;-14.06594;-2.059013;-4.460398;
1584543446;556444;1162;48754;1584543446;556444;-5.216965;4.448427;5.307945;
1584543446;580456;1162;78927;1584543446;580456;-13.85524;2.947262;-4.687847;
1584543446;667538;1162;164725;1584543446;667538;-16.96053;-5.506664;-5.990293;
1584543446;756601;1162;248929;1584543446;756601;-9.797073;1.819593;-9.002198;
1584543446;779386;1162;272913;1584543446;779386;-7.76679;-2.106897;-1.628057;
1584543446;876608;1162;368885;1584543446;876608;-5.65271;2.152387;2.47321;
1584543446;971765;1162;468291;1584543446;971765;-13.36443;-3.598485;-1.151611;
1584543447;61926;1162;554095;1584543447;61926;-11.54484;3.928885;-1.702277;
1584543447;90868;1162;586751;1584543447;90868;-1.881842;4.072537;0.533907;
1584543447;180030;1162;672481;1584543447;180030;-5.815516;1.170765;1.041478;
1584543447;271941;1162;768560;1584543447;271941;-13.81933;-1.163582;3.945644;
1584543447;356312;1162;848606;1584543447;356312;-15.01883;-4.103662;-4.24492;
1584543447;382898;1162;875241;1584543447;382898;-8.882488;-1.089362;2.533065;
1584543447;501484;1162;993902;1584543447;501484;-7.206547;-1.118092;-9.186552;
1584543447;587289;1163;79528;1584543447;587289;-4.010288;7.690176;-4.010288;
1584543447;620014;1163;113365;1584543447;620014;-10.54885;0.01436521;-3.1795;
1584543447;707769;1163;200212;1584543447;707769;-10.66377;-2.942474;-5.805939;
1584543447;804888;1163;297374;1584543447;804888;-18.7466;-5.765238;-2.224213;
1584543447;886749;1163;378964;1584543447;886749;-5.23133;6.777985;1.28808;
1584543447;985078;1163;477565;1584543447;985078;-15.65329;-6.962338;-3.402161;
1584543448;66936;1163;559120;1584543448;66936;-8.717288;6.320693;2.051831;
1584543448;106249;1163;598269;1584543448;106249;-1.977611;4.010288;-0.4644751;
1584543448;192706;1163;685032;1584543448;192706;-4.422091;0.9720459;-2.96881;
1584543448;287705;1163;780142;1584543448;287705;-11.46104;4.015076;1.912967;
1584543448;321272;1163;818510;1584543448;321272;-16.61576;-2.056619;-8.425196;
1584543448;438612;1163;930810;1584543448;438612;-6.789956;0.8355764;-4.041412;
1584543448;458030;1163;950219;1584543448;458030;-6.897695;2.952051;0.002394202;
1584543448;477893;1163;970730;1584543448;477893;-6.014235;2.082955;2.892196;
1584543448;502016;1164;2252;1584543448;502016;-11.87045;-6.002264;-5.81791;
1584543448;594237;1164;86572;1584543448;594237;-5.659893;1.505953;-0.7589619;
1584543448;623073;1164;117022;1584543448;623073;1.857901;1.417367;0.7565677;
1584543448;717998;1164;210213;1584543448;717998;-1.675941;3.332729;-2.013524;
1584543448;808163;1164;308120;1584543448;808163;-11.53048;3.198653;2.633622;
1584543448;903141;1164;395338;1584543448;903141;-13.8744;-4.654328;-0.3184288;
1584543448;939141;1164;433047;1584543448;939141;-5.315128;5.810728;-6.215347;
1584543449;23508;1164;515714;1584543449;23508;-8.968679;-2.410961;1.398214;
1584543449;54852;1164;547239;1584543449;54852;-3.323152;-1.369483;-3.047819;
1584543449;75756;1164;568268;1584543449;75756;0.05267244;-2.60968;-0.1795651;
1584543449;171952;1164;664590;1584543449;171952;-15.86159;-1.697489;-7.580042;
1584543449;248596;1164;741025;1584543449;248596;-8.844181;-0.4812345;2.817975;
1584543449;270139;1164;762448;1584543449;270139;-8.35337;1.209072;-3.646369;
1584543449;296204;1164;788712;1584543449;296204;-14.31972;-10.50576;-2.789245;
1584543449;323503;1164;816757;1584543449;323503;-13.16811;0.7302315;4.606444;
1584543449;446991;1164;939201;1584543449;446991;-6.543353;-4.556166;-0.2681506;
1584543449;468126;1164;960566;1584543449;468126;-7.807492;9.368511;-0.866701;
1584543449;492943;1164;985225;1584543449;492943;-5.193023;8.166622;2.736573;
1584543449;514700;1165;7396;1584543449;514700;-11.28866;-1.745373;-0.2801216;
1584543449;613317;1165;105742;1584543449;613317;-14.70519;-1.13964;-0.07422026;
1584543449;713458;1165;205723;1584543449;713458;-13.20163;-1.707066;-11.9734;
1584543449;818751;1165;311016;1584543449;818751;-10.1586;3.579331;-4.077325;
1584543449;914041;1165;406250;1584543449;914041;-3.859453;0.4237737;-4.412514;
1584543450;8956;1165;501296;1584543450;8956;-7.994239;6.093243;1.877054;
1584543450;38582;1165;531668;1584543450;38582;-11.82257;-5.291186;-3.023877;
1584543450;139524;1165;647563;1584543450;139524;-8.209718;7.987057;-8.65025;
1584543450;255781;1165;748267;1584543450;255781;-12.51928;-10.17775;-0.7613561;
1584543450;279970;1165;772589;1584543450;279970;-9.564836;-1.508347;3.600879;
1584543450;306505;1165;798774;1584543450;306505;2.202666;5.884948;-5.918467;
1584543450;409431;1165;901860;1584543450;409431;-8.293514;7.074866;2.762909;
1584543450;436934;1165;933256;1584543450;436934;-9.208099;-2.523489;-3.057395;
1584543450;536982;1166;29459;1584543450;536982;-3.090914;0.9121909;1.012747;
1584543450;638230;1166;130454;1584543450;638230;-9.586384;-5.774815;-2.952051;
1584543450;724092;1166;216491;1584543450;724092;-16.24466;-5.738902;-3.457227;
1584543450;819314;1166;311483;1584543450;819314;-6.991069;0.5099649;1.637634;
1584543450;850528;1166;343613;1584543450;850528;-16.49605;-1.752556;-1.04866;
1584543450;942692;1166;449621;1584543450;942692;-11.08515;0.28491;3.306392;
1584543451;47802;1166;544588;1584543451;47802;-21.69865;-1.323994;-4.774038;
1584543451;134691;1166;626870;1584543451;134691;-3.596091;0.9337386;-5.38456;
1584543451;219794;1166;712175;1584543451;219794;-2.276886;-2.288857;-10.53209;
1584543451;239728;1166;749413;1584543451;239728;-10.65659;-5.853823;0.9600748;
1584543451;339993;1166;833119;1584543451;339993;-7.975086;-0.1221043;5.061342;
1584543451;434942;1166;927215;1584543451;434942;-10.42675;8.939949;1.163582;
1584543451;467666;1166;964398;1584543451;467666;-7.400477;8.552089;2.487576;
1584543451;551083;1167;43395;1584543451;551083;-5.456386;-4.850653;-5.734113;
1584543451;645227;1167;145681;1584543451;645227;-3.725378;7.936779;3.129222;
1584543451;735186;1167;236750;1584543451;735186;-13.5847;0.9193735;4.817134;
1584543451;835395;1167;327591;1584543451;835395;-26.60916;-13.80736;10.20648;
1584543451;920744;1167;413076;1584543451;920744;-10.67335;-6.289568;-2.643199;
1584543451;957993;1167;453813;1584543451;957993;-6.907272;0.8044518;-1.307234;
1584543452;56076;1167;557193;1584543452;56076;-3.313575;3.023877;-1.37906;
1584543452;161237;1167;657880;1584543452;161237;-6.653486;-7.620744;3.857059;
1584543452;245549;1167;737950;1584543452;245549;-9.959879;0.03830723;-0.9193735;
1584543452;280566;1167;773814;1584543452;280566;-3.308787;8.700529;-0.8044518;
1584543452;358102;1167;850403;1584543452;358102;-12.81377;6.916849;-3.057395;
1584543452;472987;1167;965503;1584543452;472987;0.1005565;3.940856;2.748544;
1584543452;560271;1168;52652;1584543452;560271;-8.434772;3.260903;-0.3064578;
1584543452;646865;1168;151617;1584543452;646865;-19.08418;-1.486799;5.810728;
1584543452;740923;1168;233196;1584543452;740923;-5.750873;4.721365;1.441309;
1584543452;770593;1168;263599;1584543452;770593;-11.88961;-1.525106;-3.787627;
1584543452;797011;1168;290252;1584543452;797011;-9.469068;3.102885;2.303222;
1584543452;877189;1168;369711;1584543452;877189;-3.799598;2.844311;-5.516241;
1584543452;966571;1168;458812;1584543452;966571;-6.495469;0.2418144;-4.053383;
1584543452;998318;1168;490644;1584543452;998318;-8.904036;1.733402;4.283227;
1584543453;81480;1168;578011;1584543453;81480;-16.54393;1.788469;7.716512;
1584543453;109454;1168;601854;1584543453;109454;-6.897695;-1.307234;-6.143521;
1584543453;132791;1168;625454;1584543453;132791;-5.137957;-1.276109;1.436521;
1584543453;226598;1168;718857;1584543453;226598;-9.394847;-0.3902549;-4.194641;
1584543453;258372;1168;753755;1584543453;258372;-7.414843;1.407791;5.777209;
1584543453;351729;1168;844056;1584543453;351729;-7.331046;5.152322;1.752556;
1584543453;436656;1168;929134;1584543453;436656;-12.48576;-5.329493;-0.85473;
1584543453;526528;1169;18741;1584543453;526528;-7.187393;2.126051;0.09816227;
1584543453;558555;1169;50869;1584543453;558555;-15.5671;-2.861071;5.145139;
1584543453;656542;1169;148830;1584543453;656542;0.2466028;8.240842;1.410185;
1584543453;691424;1169;185009;1584543453;691424;-19.33318;-1.137246;5.219359;
1584543453;771168;1169;263685;1584543453;771168;-7.632715;-0.8331822;-3.581726;
1584543453;856189;1169;348628;1584543453;856189;-9.715671;2.437297;1.546654;
1584543453;887765;1169;383413;1584543453;887765;-5.312734;1.917755;-4.058172;
1584543453;973209;1169;474261;1584543453;973209;-8.415619;1.745373;1.721431;
1584543454;61920;1169;554131;1584543454;61920;-11.18571;-3.648763;-1.683124;
1584543454;96124;1169;589724;1584543454;96124;-6.136339;1.017536;0.4716577;
1584543454;174419;1169;667127;1584543454;174419;-10.49379;3.430891;2.315193;
1584543454;261501;1169;753788;1584543454;261501;-16.44817;6.742072;1.860295;
1584543454;290037;1169;793910;1584543454;290037;-10.37168;-0.581791;2.339135;
1584543454;385096;1169;877359;1584543454;385096;-12.35408;-0.3639187;4.537012;
1584543454;467059;1169;959304;1584543454;467059;-13.85285;-0.5913678;4.707;
1584543454;491456;1169;984694;1584543454;491456;-13.04601;0.605733;-8.753201;
1584543454;595708;1170;89226;1584543454;595708;-9.471461;2.600103;8.403647;
1584543454;692468;1170;184931;1584543454;692468;-5.145139;-4.496311;0.8212112;
1584543454;715508;1170;222125;1584543454;715508;-12.83053;4.118027;6.931214;
1584543454;802488;1170;297580;1584543454;802488;-13.46738;2.980781;-5.046977;
1584543454;831081;1170;323344;1584543454;831081;-6.818686;-2.497152;-0.7278373;
1584543454;856982;1170;349421;1584543454;856982;-14.40591;-0.4764461;2.121263;
1584543454;874905;1170;367233;1584543454;874905;-4.565742;-3.572149;-10.80024;
1584543454;903375;1170;401631;1584543454;903375;-7.673416;-5.650316;-11.23838;
1584543454;996554;1170;488793;1584543454;996554;-5.971139;-2.118868;-12.21282;
1584543455;28341;1170;520660;1584543455;28341;-2.291251;-3.828328;5.571307;
1584543455;103126;1170;595397;1584543455;103126;-14.49689;-8.104373;1.04866;
1584543455;213024;1170;705654;1584543455;213024;-3.517082;-3.421314;1.216254;
1584543455;242368;1170;734520;1584543455;242368;-14.65251;2.77488;3.85227;
1584543455;263148;1170;762015;1584543455;263148;-12.15297;1.264138;3.05979;
1584543455;287523;1170;779875;1584543455;287523;-9.92636;-0.4740519;-1.740585;
1584543455;311433;1170;803718;1584543455;311433;-6.612785;-4.024653;-1.118092;
1584543455;333619;1170;833716;1584543455;333619;-17.16164;4.812346;4.036624;
1584543455;359363;1170;853032;1584543455;359363;-10.05804;1.860295;2.549825;
1584543455;447411;1170;939622;1584543455;447411;-7.326257;-4.838682;-2.626439;
1584543455;463794;1170;956380;1584543455;463794;-3.263297;-2.458845;-8.137892;
1584543455;480181;1170;972773;1584543455;480181;-5.884948;2.343923;0.213084;
1584543455;507722;1171;191;1584543455;507722;-13.36922;10.97981;-2.173935;
1584543455;540505;1171;32881;1584543455;540505;-8.173804;-1.513135;7.740454;
1584543455;607315;1171;99546;1584543455;607315;-7.00304;2.882619;-2.482787;
1584543455;702007;1171;193747;1584543455;702007;-10.6111;-5.513846;-1.412579;
1584543455;803053;1171;297136;1584543455;803053;-7.994239;-2.288857;3.541024;
1584543455;823970;1171;332995;1584543455;823970;-18.22227;-5.085284;-8.228871;
1584543455;915959;1171;408712;1584543455;915959;-10.41717;-3.062184;3.296816;
1584543456;11996;1171;504616;1584543456;11996;-17.176;-3.85227;3.739743;
1584543456;93643;1171;586061;1584543456;93643;-3.514688;0.2705448;-13.57273;
1584543456;118139;1171;610614;1584543456;118139;-11.40837;5.094861;11.77947;
1584543456;210875;1171;702990;1584543456;210875;-11.62385;-4.805163;4.168305;
1584543456;227161;1171;740317;1584543456;227161;-11.12346;6.435614;-4.443638;
1584543456;319448;1171;813445;1584543456;319448;-0.1699883;5.049371;2.53546;
1584543456;359622;1171;852013;1584543456;359622;3.964798;1.096544;-3.500323;
1584543456;447792;1171;943527;1584543456;447792;-14.84405;3.840299;0.2322376;
1584543456;467316;1171;959432;1584543456;467316;-15.55034;-3.782839;7.149086;
1584543456;482451;1171;976201;1584543456;482451;-17.55189;2.75812;3.936068;
1584543456;499966;1171;995175;1584543456;499966;-15.03798;-7.187393;-3.052607;
1584543456;520387;1172;13176;1584543456;520387;-9.425972;-6.871359;0.1125275;
1584543456;562084;1172;54260;1584543456;562084;-9.976639;2.96881;-3.387795;
1584543456;642866;1172;150411;1584543456;642866;-15.23431;2.580949;-9.679757;
1584543456;728252;1172;241118;1584543456;728252;-11.28866;0.1292869;-0.9409212;
1584543456;850069;1172;342427;1584543456;850069;-12.70842;-0.6823475;2.820369;
1584543456;871444;1172;364730;1584543456;871444;-6.88333;-4.170699;-5.228936;
1584543456;911242;1172;404558;1584543456;911242;-3.849876;-3.56736;-8.590396;
1584543456;994064;1172;486285;1584543456;994064;-4.994305;-3.08852;-3.466804;
1584543457;19403;1172;511646;1584543457;19403;-11.40598;1.922544;2.932897;
1584543457;112951;1172;606062;1584543457;112951;-8.599973;5.042189;-0.8092402;
1584543457;219147;1172;711372;1584543457;219147;-7.603984;3.86903;-2.820369;
1584543457;319232;1172;811498;1584543457;319232;-12.33253;0.8331822;6.622362;
1584543457;428589;1172;920977;1584543457;428589;-4.417302;1.144428;-1.707066;
1584543457;517912;1173;10857;1584543457;517912;-4.048595;7.072472;3.476381;
1584543457;619384;1173;112597;1584543457;619384;-10.83855;2.679112;-6.138733;
1584543457;651967;1173;146272;1584543457;651967;-6.423643;-7.496245;1.776498;
1584543457;729422;1173;221762;1584543457;729422;-11.79863;0.2274492;-7.005434;
1584543457;829556;1173;321919;1584543457;829556;-8.329428;0.4572925;4.419696;
1584543457;929869;1173;422137;1584543457;929869;-3.438074;-0.8451532;-8.195353;
1584543458;38970;1173;531511;1584543458;38970;-13.2543;0.5243301;3.074155;
1584543458;156757;1173;653372;1584543458;156757;-6.821081;-2.070984;-2.379837;
1584543458;234822;1173;727085;1584543458;234822;-5.207388;-4.127604;-5.355829;
1584543458;356040;1173;848479;1584543458;356040;-9.100361;-6.971915;0.2178724;
1584543458;434909;1173;927128;1584543458;434909;-7.357382;8.508993;-0.1484405;
1584543458;556761;1174;49214;1584543458;556761;-12.69166;1.410185;1.024718;
1584543458;644155;1174;147647;1584543458;644155;-13.86243;-1.319205;-2.377442;
1584543458;735226;1174;227556;1584543458;735226;-16.55351;-2.408567;-1.817199;
1584543458;842044;1174;341174;1584543458;842044;-3.677494;1.778892;1.668759;
1584543458;945344;1174;442115;1584543458;945344;-14.8632;1.810017;1.486799;
1584543459;42416;1174;534721;1584543459;42416;-15.96933;-0.7182605;5.109226;
1584543459;145424;1174;637826;1584543459;145424;-16.10101;-10.67575;-4.568137;
1584543459;244642;1174;736989;1584543459;244642;-11.01333;-2.0231;1.376666;
1584543459;362102;1174;854357;1584543459;362102;-10.29028;2.269703;3.634398;
1584543459;439899;1174;932833;1584543459;439899;-10.73081;1.352724;-0.5434838;
1584543459;472025;1174;967092;1584543459;472025;-2.305616;-6.531382;-2.545036;
1584543459;565438;1175;57779;1584543459;565438;-4.010288;3.926491;-5.145139;
1584543459;655650;1175;156640;1584543459;655650;-7.57286;-0.1891419;-10.24239;
1584543459;769076;1175;261384;1584543459;769076;-2.640805;6.531382;-3.933673;
1584543459;861939;1175;354933;1584543459;861939;-0.5315128;0.09097967;-8.983045;
1584543459;951367;1175;447127;1584543459;951367;-1.951274;11.22641;-11.48738;
1584543460;51213;1175;547269;1584543460;51213;-8.899247;-1.640028;-1.716643;
1584543460;83438;1175;577424;1584543460;83438;-15.53837;1.910573;-0.3902549;
1584543460;107648;1175;600805;1584543460;107648;-0.07422026;2.643199;-5.207388;
1584543460;131332;1175;623582;1584543460;131332;-7.041347;-3.383007;10.47703;
1584543460;226307;1175;718546;1584543460;226307;-14.09706;-5.056554;7.271191;
1584543460;328103;1175;820518;1584543460;328103;-24.62197;-3.998317;8.568848;
1584543460;351345;1175;843580;1584543460;351345;-3.766079;-2.401384;-0.5506664;
1584543460;450055;1175;943365;1584543460;450055;-19.84554;3.196259;-6.172252;
1584543460;531907;1176;24303;1584543460;531907;-6.366182;-1.058237;-6.227318;
1584543460;626630;1176;118915;1584543460;626630;-1.968034;1.386243;-2.901772;
1584543460;716647;1176;209026;1584543460;716647;-8.968679;5.825093;2.616862;
1584543460;753462;1176;245794;1584543460;753462;-13.23275;1.872266;-0.806846;
1584543460;846535;1176;343083;1584543460;846535;-8.322245;3.201048;-1.843535;
1584543460;944293;1176;436809;1584543460;944293;-13.45062;-4.601655;0.2274492;
1584543460;972260;1176;467199;1584543460;972260;-24.01384;-4.819528;-2.212242;
1584543461;55710;1176;552279;1584543461;55710;-15.36599;0.6919243;-3.363853;
1584543461;147212;1176;639422;1584543461;147212;-11.11388;1.896208;-1.309628;
1584543461;241999;1176;734313;1584543461;241999;-11.20965;1.005565;-0.6009446;
1584543461;332091;1176;824415;1584543461;332091;-9.914389;-0.1915361;-0.8164228;
1584543461;352704;1176;853564;1584543461;352704;-10.24958;0.2418144;0.2322376;
1584543461;441987;1176;934379;1584543461;441987;-9.150639;-0.2753332;-0.1484405;
1584543461;473530;1176;966780;1584543461;473530;-10.29267;-0.09097967;-0.782904;
1584543461;551837;1177;44177;1584543461;551837;-9.797073;0.1508347;-0.4118027;
1584543461;637301;1177;129644;1584543461;637301;-9.952696;0.01915361;-0.4118027;
1584543461;657529;1177;158129;1584543461;657529;-9.727641;-0.1005565;-0.320823;
1584543461;747152;1177;239380;1584543461;747152;-9.959879;0.2920926;-0.6272808;
1584543461;778442;1177;272220;1584543461;778442;-10.13705;0.4118027;-0.28491;
1584543461;870599;1177;364369;1584543461;870599;-9.746795;0.4525041;-0.5075707;
1584543461;958413;1177;460707;1584543461;958413;-9.876081;0.05267244;-0.356736;
1584543462;52498;1177;544852;1584543462;52498;-9.840169;0.1484405;-0.3639187;
1584543462;142806;1177;635032;1584543462;142806;-9.919177;0.1149217;-0.356736;
1584543462;172400;1177;665800;1584543462;172400;-9.856928;0.1556231;-0.4644751;
1584543462;252790;1177;745241;1584543462;252790;-11.99495;0.7134721;0.7302315;
1584543462;284569;1177;777263;1584543462;284569;-10.33098;-0.3232172;0.6320692;
1584543462;362452;1177;859008;1584543462;362452;-9.382876;-1.929726;-0.9193735;
1584543462;448500;1177;941058;1584543462;448500;-9.174581;0.2418144;-0.6224924;
1584543462;479889;1177;972745;1584543462;479889;-7.627926;-0.3806781;-0.7206547;
1584543462;562911;1178;55208;1584543462;562911;-11.84651;2.166753;3.775656;
1584543462;592805;1178;85275;1584543462;592805;-7.029376;2.861071;-0.2944868;
1584543462;683117;1178;179189;1584543462;683117;-6.794744;0.8834604;-2.987964;
1584543462;712694;1178;205419;1584543462;712694;-5.832275;-1.496376;2.959233;
1584543462;793517;1178;286285;1584543462;793517;-13.51766;4.699818;3.196259;
1584543462;818514;1178;310766;1584543462;818514;-4.15394;4.594473;0.5291185;
1584543462;840767;1178;333290;1584543462;840767;-5.849035;-0.5243301;0.8283938;
1584543462;862947;1178;355402;1584543462;862947;-4.216189;6.816292;-1.393425;
1584543462;965609;1178;458114;1584543462;965609;-9.835381;1.534683;0.02394202;
1584543462;999694;1178;492269;1584543462;999694;-14.17128;2.032677;1.137246;
1584543463;78105;1178;570371;1584543463;78105;-16.17762;-7.580042;0.3016694;
1584543463;112904;1178;606766;1584543463;112904;-13.28543;0.6200982;-2.657564;
1584543463;203518;1178;695773;1584543463;203518;-16.19438;-9.059659;-2.157176;
1584543463;229188;1178;729344;1584543463;229188;-5.947197;1.802834;-0.2202666;
1584543463;328319;1178;821015;1584543463;328319;-10.34056;4.690241;1.036689;
1584543463;349414;1178;842097;1584543463;349414;-8.602366;4.390966;-6.519411;
1584543463;370661;1178;866274;1584543463;370661;-16.25663;1.060631;-8.722076;
1584543463;406214;1178;898996;1584543463;406214;-14.17367;1.896208;-7.627926;
1584543463;490370;1178;982700;1584543463;490370;-4.733336;5.341464;-1.625663;
1584543463;579709;1179;72336;1584543463;579709;-11.54005;-2.494758;-6.126762;
1584543463;610870;1179;103045;1584543463;610870;-3.701436;2.286463;-0.1508347;
1584543463;693438;1179;189498;1584543463;693438;-7.771579;1.565808;-0.03830723;
1584543463;726550;1179;218886;1584543463;726550;-7.208941;4.261679;-5.45878;
1584543463;812912;1179;305373;1584543463;812912;-17.69315;-5.846641;-4.817134;
1584543463;849460;1179;341787;1584543463;849460;-10.30225;0.8810662;-8.868123;
1584543463;928653;1179;421125;1584543463;928653;-4.386178;12.12184;-1.929726;
1584543463;961241;1179;453733;1584543463;961241;0.7350199;3.339911;-0.3423708;
1584543464;50508;1179;542991;1584543464;50508;-4.781221;1.692701;0.581791;
1584543464;71709;1179;564230;1584543464;71709;-8.135497;3.375824;-4.266468;
1584543464;159152;1179;651365;1584543464;159152;-5.662287;3.758897;-0.1723825;
1584543464;181474;1179;673896;1584543464;181474;-19.73301;-1.137246;-2.300828;
1584543464;264329;1179;756738;1584543464;264329;-16.43141;-0.830788;-6.59842;
1584543464;293246;1179;786544;1584543464;293246;1.096544;4.259285;2.746149;
1584543464;399129;1179;891635;1584543464;399129;-17.33641;-1.271321;-6.588843;
1584543464;489650;1179;984567;1584543464;489650;-13.43387;-2.772485;-0.1747767;
1584543464;516968;1180;17412;1584543464;516968;-9.461884;2.219425;-2.710236;
1584543464;609390;1180;101821;1584543464;609390;-7.134721;3.031059;0.7996634;
1584543464;705385;1180;197913;1584543464;705385;-5.061342;-3.050213;0.2681506;
1584543464;805094;1180;297531;1584543464;805094;-11.34373;1.285686;-0.7757213;
1584543464;904883;1180;397358;1584543464;904883;-19.80962;-4.398149;-3.790021;
1584543465;4986;1180;497514;1584543465;4986;-10.39323;-4.355053;1.702277;
1584543465;101941;1180;594524;1584543465;101941;-5.89213;4.91769;-0.002394202;
1584543465;142680;1180;636095;1584543465;142680;-18.4569;-7.414843;-3.689465;
1584543465;219569;1180;712571;1584543465;219569;-13.15853;-3.411737;3.095703;
1584543465;333473;1180;829369;1584543465;333473;-9.947907;3.189077;-4.118027;
1584543465;359783;1180;852616;1584543465;359783;-7.108385;2.461239;1.25935;
1584543465;381149;1180;873722;1584543465;381149;-11.16656;-5.125986;1.446098;
1584543465;465049;1180;957444;1584543465;465049;-8.693346;1.355118;-0.902614;
1584543465;486024;1180;981520;1584543465;486024;-10.74997;1.714248;-4.527435;
1584543465;570139;1181;62399;1584543465;570139;-13.57512;4.086902;-1.024718;
1584543465;596363;1181;88972;1584543465;596363;-10.82897;-4.106056;-0.8595184;
1584543465;694486;1181;186748;1584543465;694486;-17.77695;-6.399701;-4.065354;
1584543465;728014;1181;228388;1584543465;728014;-4.515464;-1.999158;0.4501099;
1584543465;815736;1181;315073;1584543465;815736;-24.14313;-4.177882;1.04866;
1584543465;916654;1181;416274;1584543465;916654;-27.11673;-6.936002;2.454057;
1584543466;11253;1181;504808;1584543466;11253;-4.390966;-2.920926;0.7398083;
1584543466;100508;1181;592978;1584543466;100508;-12.56956;-0.3854665;-0.3232172;
1584543466;198603;1181;690823;1584543466;198603;-10.96066;-2.054225;-5.499481;
1584543466;236468;1181;729367;1584543466;236468;-11.91115;-0.7805098;-7.876924;
1584543466;339852;1181;832237;1584543466;339852;-10.50097;2.147599;-4.024653;
1584543466;365547;1181;858369;1584543466;365547;-3.878607;2.47321;-4.606444;
1584543466;387217;1181;879578;1584543466;387217;-11.84651;-2.13084;-6.220136;
1584543466;412134;1181;912099;1584543466;412134;-5.073313;2.252944;-2.288857;
1584543466;505957;1181;998372;1584543466;505957;-15.68681;2.971204;2.889802;
1584543466;538878;1182;30984;1584543466;538878;-11.29105;-3.706224;3.361459;
1584543466;615489;1182;111623;1584543466;615489;-11.46344;2.13084;0.05027824;
1584543466;711308;1182;203578;1584543466;711308;-16.85518;1.546654;2.238579;
1584543466;748581;1182;240874;1584543466;748581;-9.258378;6.263232;1.733402;
1584543466;827208;1182;319651;1584543466;827208;-6.550536;3.44765;-4.924873;
1584543466;932548;1182;425411;1584543466;932548;-14.50886;-0.3950433;-11.24317;
1584543467;16069;1182;512372;1584543467;16069;-8.844181;8.36534;2.94008;
1584543467;111298;1182;603577;1584543467;111298;-4.790798;3.830723;0.9433154;
1584543467;211427;1182;703710;1584543467;211427;-21.02349;-10.11311;-5.509058;
1584543467;311470;1182;803736;1584543467;311470;-13.59667;-3.701436;0.8523358;
1584543467;334603;1182;828624;1584543467;334603;-9.38527;3.191471;-0.07422026;
1584543467;441492;1182;941272;1584543467;441492;-4.498705;-0.8499416;-2.904167;
1584543467;537609;1183;30130;1584543467;537609;-15.45697;-1.103727;-0.4261679;
1584543467;570534;1183;64276;1584543467;570534;-3.857059;-2.801216;-1.63524;
1584543467;654418;1183;146736;1584543467;654418;-16.19438;-6.184223;1.225831;
1584543467;680486;1183;173004;1584543467;680486;-7.12275;5.11162;1.273715;
1584543467;701158;1183;197596;1584543467;701158;-5.985504;0.7062895;-2.77488;
1584543467;737596;1183;229889;1584543467;737596;-7.022193;-3.761291;-3.193865;
1584543467;816643;1183;309037;1584543467;816643;-9.148245;-1.879448;-1.90339;
1584543467;855619;1183;347652;1584543467;855619;-8.130709;-2.817975;-4.278439;
1584543467;936952;1183;429508;1584543467;936952;-15.90708;2.571373;0.4453215;
1584543467;966629;1183;458981;1584543467;966629;-10.32859;-0.4237737;0.8259996;
1584543467;993550;1183;486132;1584543467;993550;-3.94325;4.647145;-1.039083;
1584543468;71994;1183;568124;1584543468;71994;-9.722853;-2.001553;-3.691859;
1584543468;101470;1183;593904;1584543468;101470;-11.08276;3.337517;6.98628;
1584543468;128100;1183;621308;1584543468;128100;-0.3280056;6.196194;0.6703765;
1584543468;217324;1183;709787;1584543468;217324;-13.88158;0.3902549;-1.877054;
1584543468;246970;1183;740083;1584543468;246970;-6.76362;-1.254562;5.777209;
1584543468;331303;1183;823503;1584543468;331303;-7.417237;3.488352;0.3998317;
1584543468;361876;1183;854464;1584543468;361876;-7.879318;-4.436456;-1.728614;
1584543468;444415;1183;936924;1584543468;444415;-13.80018;-3.881001;-2.264915;
1584543468;532725;1184;25178;1584543468;532725;-9.957484;-2.559402;-0.7924808;
1584543468;563427;1184;56639;1584543468;563427;-9.19134;-1.96564;3.394978;
1584543468;644408;1184;136918;1584543468;644408;-11.1067;-5.449203;0.08619126;
1584543468;673009;1184;166234;1584543468;673009;-8.571242;2.944868;-2.873042;
1584543468;752670;1184;245113;1584543468;752670;-12.7587;-0.2513912;1.879448;
1584543468;788277;1184;280866;1584543468;788277;-8.844181;2.154782;-3.979163;
1584543468;872822;1184;365316;1584543468;872822;-9.844957;2.971204;0.2801216;
1584543468;900715;1184;393213;1584543468;900715;-4.297592;6.524199;1.426944;
1584543468;928756;1184;421346;1584543468;928756;-14.82011;1.292869;4.106056;
1584543468;953048;1184;445960;1584543468;953048;-21.57415;-8.822633;-5.631162;
1584543469;37292;1184;529695;1584543469;37292;-9.370905;-1.362301;-2.53546;
1584543469;142819;1184;639649;1584543469;142819;-14.70758;0.3711013;2.794033;
1584543469;234040;1184;726365;1584543469;234040;-2.834735;3.849876;3.074155;
1584543469;261306;1184;761503;1584543469;261306;-3.275268;4.967968;-1.771709;
1584543469;351995;1184;844565;1584543469;351995;-7.144298;-0.9074025;2.231396;
1584543469;437908;1184;930123;1584543469;437908;-3.969586;0.1508347;-0.5482722;
1584543469;464013;1184;964454;1584543469;464013;-21.24615;-3.035848;-1.426944;
1584543469;553857;1185;46263;1584543469;553857;-11.66455;0.4979939;0.05267244;
1584543469;584573;1185;79977;1584543469;584573;-8.664616;1.012747;-1.268927;
1584543469;610028;1185;102389;1584543469;610028;-11.83933;0.3280056;-0.5650316;
1584543469;694821;1185;187356;1584543469;694821;-8.956708;-0.09337386;-0.9313444;
1584543469;726525;1185;218645;1584543469;726525;-11.05882;0.1819593;-0.7398083;
1584543469;798632;1185;291595;1584543469;798632;-9.921572;0.1604115;-0.4070143;
1584543469;829488;1185;322048;1584543469;829488;-9.466673;-0.05746084;-1.010353;
1584543469;857172;1185;349616;1584543469;857172;-10.33337;-0.007182605;-0.56982;
1584543469;938163;1185;430419;1584543469;938163;-9.447519;-1.173159;-0.8882488;
1584543469;963613;1185;456110;1584543469;963613;-11.17613;-0.4884171;-0.6631939;
1584543470;48263;1185;540615;1584543470;48263;-8.755595;-2.161964;-0.9074025;
1584543470;79088;1185;571252;1584543470;79088;-15.45457;-0.5626374;-6.263232;
1584543470;159662;1185;652301;1584543470;159662;-4.795586;0.7110779;-1.802834;
1584543470;189644;1185;686627;1584543470;189644;-13.27824;-1.201889;-3.742137;
1584543470;268721;1185;761600;1584543470;268721;-12.65814;2.061408;-5.410896;
1584543470;302554;1185;794816;1584543470;302554;-4.544195;-0.4860229;3.126827;
1584543470;402827;1185;895096;1584543470;402827;-13.01727;-3.021482;-2.133234;
1584543470;430558;1185;922931;1584543470;430558;-12.08114;-2.487576;0.6153098;
1584543470;452668;1185;945182;1584543470;452668;-2.815581;1.551443;4.010288;
1584543470;539116;1186;31450;1584543470;539116;-3.22499;5.509058;4.031836;
1584543470;571003;1186;72735;1584543470;571003;-15.73709;-3.404555;-6.785168;
1584543470;662787;1186;155695;1584543470;662787;-3.22499;-1.098939;6.540959;
1584543470;753635;1186;246036;1584543470;753635;1.180341;-1.735796;6.246472;
1584543470;784963;1186;277270;1584543470;784963;-8.75799;-0.6009446;3.560178;
1584543470;866959;1186;360136;1584543470;866959;-6.924031;6.198588;-1.187524;
1584543470;949068;1186;441486;1584543470;949068;-10.47463;3.356671;-4.508282;
1584543470;975221;1186;468497;1584543470;975221;-6.466739;2.576161;2.925714;
1584543471;58617;1186;550880;1584543471;58617;-17.22389;2.703054;-4.082114;
1584543471;143895;1186;636261;1584543471;143895;-7.781156;1.312023;-1.821988;
1584543471;163999;1186;659257;1584543471;163999;-11.7675;0.5363012;-3.813963;
1584543471;248872;1186;741305;1584543471;248872;-9.258378;1.005565;-0.8044518;
1584543471;277056;1186;769989;1584543471;277056;-9.938331;-1.130063;-1.144428;
1584543471;371076;1186;864777;1584543471;371076;-11.4778;0.4644751;-1.063026;
1584543471;400128;1186;892786;1584543471;400128;-8.738836;-1.187524;0.3160346;
1584543471;494571;1186;986844;1584543471;494571;-12.29183;0.248997;-1.61848;
1584543471;579349;1187;72204;1584543471;579349;-10.00058;1.015141;-0.7972692;
1584543471;612401;1187;105662;1584543471;612401;-6.397307;-0.1628057;-0.04309563;
1584543471;694660;1187;186935;1584543471;694660;-9.639056;-0.03112462;-1.362301;
1584543471;720552;1187;222962;1584543471;720552;-9.334992;0.03830723;0.5386954;
1584543471;810048;1187;305307;1584543471;810048;-9.291897;0.2753332;-0.6033388;
1584543471;899788;1187;392219;1584543471;899788;-10.12747;0.818817;-0.6943185;
1584543471;994565;1187;486904;1584543471;994565;-10.817;0.3734955;-1.161188;
1584543472;18843;1187;511442;1584543472;18843;-8.559271;0.545878;-0.3711013;
1584543472;99855;1187;592432;1584543472;99855;-11.1881;0.6440402;-1.953669;
1584543472;126810;1187;620183;1584543472;126810;-8.465897;0.07661445;0.3351882;
1584543472;210075;1187;703257;1584543472;210075;-8.645462;0.5602432;-0.1484405;
1584543472;306732;1187;822472;1584543472;306732;-11.03248;0.8140286;-1.072602;
1584543472;415703;1187;907966;1584543472;415703;-9.651027;-0.7541735;0.1915361;
1584543472;499797;1187;996062;1584543472;499797;-10.97502;0.1316811;-0.878672;
1584543472;590461;1188;82745;1584543472;590461;-9.854534;0.08858546;2.63841;
1584543472;686026;1188;178489;1584543472;686026;-10.37408;0.2250549;-0.344765;
1584543472;726428;1188;219312;1584543472;726428;-8.949526;0.3112462;-0.5410896;
1584543472;815706;1188;308164;1584543472;815706;-10.6949;0.5482722;-0.6344634;
1584543472;896358;1188;392436;1584543472;896358;-10.17057;0.1915361;-0.5434838;
1584543472;991056;1188;483341;1584543472;991056;-9.55047;-1.891419;-0.4644751;
1584543473;80338;1188;573006;1584543473;80338;-10.88404;-1.66397;-0.557849;
1584543473;170537;1188;662824;1584543473;170537;-19.09136;-8.674192;-10.52491;
1584543473;202877;1188;695402;1584543473;202877;3.414132;1.659182;0.9097967;
1584543473;236965;1188;731508;1584543473;236965;-16.85757;-3.351882;-2.157176;
1584543473;331446;1188;826177;1584543473;331446;-16.0627;-0.1532289;4.584896;
1584543473;415766;1188;908206;1584543473;415766;-10.20648;-4.050989;-1.96564;
1584543473;508612;1189;2129;1584543473;508612;-10.36689;-1.221043;-2.815581;
1584543473;601460;1189;94883;1584543473;601460;-9.208099;-1.352724;-3.866636;
1584543473;627047;1189;136113;1584543473;627047;-8.990228;0.2442086;0.004788403;
1584543473;716240;1189;208767;1584543473;716240;-12.00692;5.262455;-1.443704;
1584543473;757408;1189;249869;1584543473;757408;-14.13297;-3.648763;1.170765;
1584543473;830820;1189;323761;1584543473;830820;-11.0253;-1.793257;-3.110068;
1584543473;921313;1189;420783;1584543473;921313;0.009576807;-3.639187;-0.2298434;
1584543474;29504;1189;522052;1584543474;29504;-9.859323;-1.383849;2.576161;
1584543474;123070;1189;620303;1584543474;123070;-2.425326;1.599327;6.727706;
1584543474;216211;1189;708772;1584543474;216211;-13.71878;-0.8236054;-7.723694;
1584543474;336628;1189;829080;1584543474;336628;-6.397307;-1.869871;-5.693411;
1584543474;366043;1189;858420;1584543474;366043;-7.460332;-3.459621;-0.3064578;
1584543474;386639;1189;879040;1584543474;386639;-5.537788;-2.104503;-2.214637;
1584543474;411657;1189;904151;1584543474;411657;-7.165845;-1.881842;-5.087678;
1584543474;504967;1189;998284;1584543474;504967;-10.79306;-0.9864111;-1.726219;
1584543474;540316;1190;32664;1584543474;540316;-9.782708;-0.9193735;1.613692;
1584543474;622128;1190;117559;1584543474;622128;-15.71793;-7.802703;-10.31901;
1584543474;730088;1190;234503;1584543474;730088;-2.276886;0.4908113;-5.11162;
1584543474;852311;1190;344636;1584543474;852311;-13.40035;0.5147533;-4.948815;
1584543474;939377;1190;432376;1584543474;939377;-14.7411;-1.539472;4.197035;
1584543475;37551;1190;529826;1584543475;37551;-10.30464;-4.022259;-3.660734;
1584543475;64609;1190;558421;1584543475;64609;-20.13524;-5.343858;-7.31668;
1584543475;161993;1190;659062;1584543475;161993;-5.719748;-0.320823;0.9050083;
1584543475;187354;1190;679629;1584543475;187354;-19.6133;-6.586449;4.369418;
1584543475;211097;1190;705091;1584543475;211097;0.9552864;0.356736;-1.54426;
1584543475;301651;1190;815555;1584543475;301651;-2.37026;3.047819;-1.307234;
1584543475;414828;1190;908065;1584543475;414828;-10.82179;-2.667141;0.6607997;
1584543475;502188;1190;994474;1584543475;502188;-8.111555;-5.686229;2.537854;
1584543475;551292;1191;48302;1584543475;551292;-20.57098;-5.872977;1.18513;
1584543475;656756;1191;149061;1584543475;656756;-11.34612;-8.274361;-2.913743;
1584543475;747217;1191;239465;1584543475;747217;-11.73159;-4.333505;-5.489904;
1584543475;837415;1191;333317;1584543475;837415;-5.89213;-1.355118;-0.9576806;
1584543475;872676;1191;366334;1584543475;872676;-16.69956;-7.94875;2.604891;
1584543475;967969;1191;465741;1584543475;967969;-3.847482;4.766856;2.841917;
1584543475;996516;1191;489041;1584543475;996516;-8.944737;-2.750938;9.085996;
1584543476;21522;1191;514277;1584543476;21522;-12.21522;-1.522712;-10.99657;
1584543476;63853;1191;556207;1584543476;63853;-13.00051;-6.030994;-2.252944;
1584543476;160734;1191;653164;1584543476;160734;-12.21522;-1.841141;4.129998;
1584543476;185480;1191;677981;1584543476;185480;-9.174581;1.915361;-6.117185;
1584543476;206460;1191;699465;1584543476;206460;-14.00369;-2.645593;4.338294;
1584543476;240705;1191;733389;1584543476;240705;-14.51844;0.8882488;-4.074931;
1584543476;332028;1191;824421;1584543476;332028;-7.153874;2.746149;10.00537;
1584543476;417894;1191;910144;1584543476;417894;-1.16837;-6.100426;-9.579201;
1584543476;525574;1192;19534;1584543476;525574;-6.064513;1.685518;-6.31351;
1584543476;623040;1192;127234;1584543476;623040;-2.966416;11.98059;-15.05235;
1584543476;723258;1192;227567;1584543476;723258;-20.10651;4.34787;5.185841;
1584543476;818286;1192;311042;1584543476;818286;-1.529895;8.844181;-1.137246;
1584543476;923330;1192;422315;1584543476;923330;-7.982268;-2.06859;3.490746;
1584543477;23706;1192;516137;1584543477;23706;-9.016563;2.236184;8.293514;
1584543477;132568;1192;625742;1584543477;132568;-14.13297;-9.694122;10.07001;
1584543477;165212;1192;658519;1584543477;165212;-9.588778;14.00608;-5.963956;
1584543477;249427;1192;741867;1584543477;249427;4.094085;-1.944092;-5.365406;
1584543477;348779;1192;841029;1584543477;348779;-19.22783;-4.989516;2.736573;
1584543477;451728;1192;944986;1584543477;451728;-12.00453;2.741361;-9.260772;
1584543477;480978;1192;977552;1584543477;480978;-14.94221;-3.155558;6.43322;
1584543477;563053;1193;59019;1584543477;563053;-7.2257;2.360683;-2.657564;
1584543477;593074;1193;86410;1584543477;593074;-8.046912;-10.6111;1.173159;
1584543477;671921;1193;164424;1584543477;671921;2.408567;3.699042;1.199495;
1584543477;697307;1193;189931;1584543477;697307;-9.923965;-1.917755;10.88643;
1584543477;718872;1193;211122;1584543477;718872;-16.57027;-7.213729;2.966416;
1584543477;743213;1193;236744;1584543477;743213;5.319916;-1.426944;1.082179;
1584543477;839978;1193;331758;1584543477;839978;-6.382942;2.952051;-8.705317;
1584543477;860969;1193;360695;1584543477;860969;-10.86728;-0.890643;3.351882;
1584543477;892384;1193;385851;1584543477;892384;-6.780379;-0.4285621;-3.881001;
1584543477;915395;1193;407858;1584543477;915395;-4.606444;0.9935937;1.01993;
1584543477;951777;1193;444076;1584543477;951777;-9.500193;2.908955;-7.807492;
1584543478;40870;1193;536756;1584543478;40870;-16.50563;1.007959;3.682282;
1584543478;75371;1193;569056;1584543478;75371;-7.764396;-9.955091;-2.513912;
1584543478;159630;1193;652107;1584543478;159630;-12.58632;-2.243367;1.017536;
1584543478;264474;1193;763361;1584543478;264474;-9.47625;-2.987964;7.017405;
1584543478;296405;1193;790154;1584543478;296405;-18.53352;-5.465962;-5.183446;
1584543478;319569;1193;812058;1584543478;319569;-11.08037;5.604826;-12.75631;
1584543478;342763;1193;835032;1584543478;342763;-13.24472;1.261744;1.594538;
1584543478;439305;1193;947390;1584543478;439305;-20.76731;3.957615;17.20952;
1584543478;545118;1194;39634;1584543478;545118;-11.1881;0.9121909;0.557849;
1584543478;634072;1194;126501;1584543478;634072;-12.67012;1.206678;-1.611298;
1584543478;734550;1194;226912;1584543478;734550;-16.5152;-4.295198;2.820369;
1584543478;755093;1194;250932;1584543478;755093;-11.11867;2.772485;-9.248801;
1584543478;855943;1194;352830;1584543478;855943;-6.976704;3.375824;2.765303;
1584543478;953415;1194;445818;1584543478;953415;-4.209006;0.5793968;0.7469909;
1584543479;49269;1194;541609;1584543479;49269;-12.61984;1.010353;0.2561796;
1584543479;85069;1194;577404;1584543479;85069;-8.681376;8.147469;0.8930372;
1584543479;166536;1194;658922;1584543479;166536;-12.68448;1.302446;-6.995857;
1584543479;255094;1194;747364;1584543479;255094;-8.781932;1.70946;0.3351882;
1584543479;357490;1194;849934;1584543479;357490;-11.01812;3.797204;-6.744466;
1584543479;453851;1194;947570;1584543479;453851;-13.87679;-4.213795;-7.041347;
1584543479;554868;1195;47738;1584543479;554868;-20.58774;0.09576806;4.462792;
1584543479;656370;1195;148792;1584543479;656370;-24.63155;3.591302;1.036689;
1584543479;745191;1195;237696;1584543479;745191;-15.21755;13.89834;0.1029507;
1584543479;765532;1195;262788;1584543479;765532;-8.968679;-3.713407;-3.524265;
1584543479;860760;1195;353269;1584543479;860760;-10.47463;1.125275;-1.096544;
1584543479;955246;1195;447488;1584543479;955246;-9.28232;-0.1723825;-3.857059;
1584543479;993897;1195;486180;1584543479;993897;-16.19917;11.94946;-3.818752;
1584543480;74863;1195;567076;1584543480;74863;-4.149151;3.541024;3.078943;
1584543480;160103;1195;652555;1584543480;160103;-16.65167;-2.049437;-6.445191;
1584543480;250584;1195;742969;1584543480;250584;-15.62935;2.126051;0.7469909;
1584543480;274966;1195;768304;1584543480;274966;-8.073248;3.955221;-3.071761;
1584543480;360615;1195;853043;1584543480;360615;-13.96059;0.9313444;2.679112;
1584543480;398674;1195;890992;1584543480;398674;-6.698976;4.592079;4.5418;
1584543480;480947;1195;977175;1584543480;480947;-7.041347;5.197812;-8.961496;
1584543480;571049;1196;67121;1584543480;571049;-22.381;-4.493917;-3.888184;
1584543480;660812;1196;153386;1584543480;660812;-8.386889;-1.295263;-1.92015;
1584543480;699542;1196;192029;1584543480;699542;-6.054936;0.7398083;0.9600748;
1584543480;806060;1196;298135;1584543480;806060;-9.459491;1.922544;-0.6464344;
1584543480;903528;1196;396076;1584543480;903528;-10.63504;0.2801216;-0.4884171;
1584543481;2185;1196;494346;1584543481;2185;-9.457096;-0.1364695;-0.2633622;
1584543481;90248;1196;582370;1584543481;90248;-9.775525;-0.07661445;-0.5003881;
1584543481;176099;1196;671010;1584543481;176099;-9.852139;0.1388637;-0.5171475;
1584543481;271408;1196;763702;1584543481;271408;-10.01495;-0.007182605;-0.5626374;
1584543481;302843;1196;802366;1584543481;302843;-9.725247;-0.04548983;-0.5506664;
1584543481;393293;1196;885932;1584543481;393293;-10.00058;0.6991069;-0.5746084;
