sent.seconds;sent.microseconds;received.seconds;received.microseconds;sampleTimeStamp.seconds;sampleTimeStamp.microseconds;accelerationX;accelerationY;accelerationZ;
1584542901;896551;617;402145;1584542901;896551;-9.88087;0.1628057;-0.4548983;
1584542901;992429;617;484850;1584542901;992429;-9.861716;0.1508347;-0.5219359;
1584542902;23523;617;516549;1584542902;23523;-9.878476;0.1747767;-0.5315128;
1584542902;117575;617;609903;1584542902;117575;-9.902418;0.1484405;-0.4979939;
1584542902;219890;617;712288;1584542902;219890;-9.868899;0.1508347;-0.5746084;
1584542902;251370;617;744588;1584542902;251370;-9.9096;0.1556231;-0.557849;
1584542902;327859;617;820064;1584542902;327859;-9.895235;0.1388637;-0.5195417;
1584542902;422526;617;914604;1584542902;422526;-9.89763;0.1580173;-0.4716577;
1584542902;454228;617;946906;1584542902;454228;-9.916783;0.1316811;-0.5482722;
1584542902;477925;617;970144;1584542902;477925;-9.911995;0.1675941;-0.4860229;
1584542902;498606;617;990891;1584542902;498606;-9.89763;0.1675941;-0.5243301;
1584542902;582502;618;74735;1584542902;582502;-9.868899;0.1460463;-0.5985504;
1584542902;602752;618;94817;1584542902;602752;-9.854534;0.1364695;-0.5195417;
1584542902;719111;618;211974;1584542902;719111;-9.89763;0.1508347;-0.5602432;
1584542902;808322;618;300718;1584542902;808322;-9.868899;0.1939303;-0.5434838;
1584542902;897588;618;389843;1584542902;897588;-9.885658;0.1532289;-0.4979939;
1584542902;929913;618;422216;1584542902;929913;-9.885658;0.1484405;-0.5219359;
1584542903;23006;618;515817;1584542903;23006;-9.868899;0.1604115;-0.4979939;
1584542903;52816;618;549782;1584542903;52816;-9.840169;0.1771709;-0.5003881;
1584542903;132941;618;628035;1584542903;132941;-9.854534;0.1843535;-0.5315128;
1584542903;166148;618;658232;1584542903;166148;-9.888053;0.1867477;-0.5147533;
1584542903;190069;618;682471;1584542903;190069;-9.871293;0.1508347;-0.4596867;
1584542903;224459;618;717794;1584542903;224459;-9.888053;0.1604115;-0.56982;
1584542903;309586;618;801972;1584542903;309586;-9.864111;0.1292869;-0.5147533;
1584542903;344707;618;837387;1584542903;344707;-9.892841;0.1628057;-0.5363012;
1584542903;433985;618;926123;1584542903;433985;-9.890447;0.2106898;-0.5075707;
1584542903;522090;619;19196;1584542903;522090;-9.900023;0.1580173;-0.5123591;
1584542903;608289;619;100542;1584542903;608289;-9.938331;0.1747767;-0.5171475;
1584542903;723051;619;219131;1584542903;723051;-9.100361;-0.09337386;0.2705448;
1584542903;813953;619;306042;1584542903;813953;-8.520964;-2.070984;-1.776498;
1584542903;847902;619;340484;1584542903;847902;-11.08515;-2.669535;0.5051765;
1584542903;933416;619;425693;1584542903;933416;-17.17122;2.420538;-3.737349;
1584542903;965231;619;458290;1584542903;965231;-4.553771;1.527501;-1.793257;
1584542903;988080;619;481658;1584542903;988080;-9.366117;-0.7445967;-1.90339;
1584542904;8734;619;501234;1584542904;8734;-9.983821;1.537077;-4.939238;
1584542904;103863;619;596148;1584542904;103863;-6.591237;-2.070984;-0.4022259;
1584542904;131807;619;636265;1584542904;131807;-13.10825;2.121263;0.5267243;
1584542904;249545;619;741905;1584542904;249545;-7.785944;6.138733;1.910573;
1584542904;346142;619;839005;1584542904;346142;-11.99016;-6.121974;1.290475;
1584542904;373641;619;866059;1584542904;373641;-14.46816;-1.831564;2.238579;
1584542904;397437;619;889753;1584542904;397437;-12.94784;3.193865;3.471592;
1584542904;417936;619;910041;1584542904;417936;-13.10586;1.189918;2.954445;
1584542904;508980;620;1239;1584542904;508980;-14.77462;-0.6631939;-6.186617;
1584542904;534427;620;27197;1584542904;534427;-8.949526;-2.37026;1.429338;
1584542904;618944;620;111017;1584542904;618944;-9.404424;0.3303998;-0.7326257;
1584542904;724236;620;216451;1584542904;724236;-4.982334;-1.30484;8.173804;
1584542904;824157;620;316425;1584542904;824157;-8.944737;2.312799;-0.56982;
1584542904;919410;620;411539;1584542904;919410;-6.428432;0.6560113;2.607285;
1584542905;9632;620;502019;1584542905;9632;-7.232883;-0.4453215;-0.1197101;
1584542905;29961;620;522019;1584542905;29961;-9.809044;1.898602;-0.9696517;
1584542905;124528;620;616760;1584542905;124528;-12.50492;-5.420473;6.076484;
1584542905;224901;620;717260;1584542905;224901;-12.74434;-5.159504;2.604891;
1584542905;329751;620;821931;1584542905;329751;-13.72356;0.2298434;-1.807622;
1584542905;424743;620;916941;1584542905;424743;-1.905784;-0.3136404;1.242591;
1584542905;456445;620;949466;1584542905;456445;-12.51689;2.561796;0.7158663;
1584542905;568739;621;60885;1584542905;568739;-20.01553;-11.70525;4.237737;
1584542905;594164;621;86253;1584542905;594164;-0.6248866;8.590396;-3.359065;
1584542905;615474;621;127582;1584542905;615474;-16.82405;-5.085284;5.159504;
1584542905;729979;621;222134;1584542905;729979;-6.670246;3.375824;3.828328;
1584542905;830046;621;322164;1584542905;830046;-10.40759;0.7278373;-3.16274;
1584542905;930070;621;422190;1584542905;930070;-7.615955;8.564059;-1.106121;
1584542906;35053;621;527919;1584542906;35053;-9.715671;7.639897;-6.737284;
1584542906;135336;621;627486;1584542906;135336;2.983175;12.15057;0.4740519;
1584542906;166217;621;658417;1584542906;166217;-16.56069;-2.928109;-1.431733;
1584542906;262512;621;755529;1584542906;262512;-10.42196;0.2657564;4.525041;
1584542906;340283;621;832465;1584542906;340283;-5.238513;2.899378;-1.218649;
1584542906;449548;621;950004;1584542906;449548;-9.169792;-3.488352;1.932121;
1584542906;554828;622;50889;1584542906;554828;-17.97327;-4.185064;-1.345541;
1584542906;640749;622;132961;1584542906;640749;-11.00136;3.191471;2.315193;
1584542906;725639;622;217849;1584542906;725639;-8.813056;-0.4764461;0.02873042;
1584542906;765397;622;262364;1584542906;765397;-13.79778;2.25055;-5.513846;
1584542906;850548;622;342610;1584542906;850548;-14.00608;-1.790863;-4.781221;
1584542906;945884;622;437961;1584542906;945884;-5.827487;1.154005;0.5434838;
1584542906;977124;622;473602;1584542906;977124;-13.81215;3.634398;-0.4716577;
1584542907;65478;622;557766;1584542907;65478;3.754108;1.482011;9.689334;
1584542907;95219;622;588749;1584542907;95219;-28.74239;0.1556231;-9.346963;
1584542907;173323;622;667283;1584542907;173323;-11.04924;-1.695095;-0.7469909;
1584542907;203384;622;695943;1584542907;203384;-7.644686;-2.305616;-1.063026;
1584542907;285231;622;777379;1584542907;285231;-11.86088;-4.220977;2.075773;
1584542907;307041;622;799250;1584542907;307041;-10.98699;-0.08619126;-4.582502;
1584542907;328795;622;821249;1584542907;328795;-14.99489;-6.086061;1.201889;
1584542907;358761;622;858307;1584542907;358761;-7.596802;2.734178;3.928885;
1584542907;450537;622;942606;1584542907;450537;-19.67315;-8.458714;-0.7900866;
1584542907;542929;623;36286;1584542907;542929;-9.665392;-1.374272;0.653617;
1584542907;626437;623;118468;1584542907;626437;-10.44111;-0.2418144;-3.189077;
1584542907;673242;623;169420;1584542907;673242;-3.921702;7.132327;5.427655;
1584542907;761516;623;261118;1584542907;761516;-1.436521;4.407725;-0.06464344;
1584542907;856875;623;349157;1584542907;856875;-14.58069;-1.398214;2.77488;
1584542907;888083;623;380874;1584542907;888083;-6.698976;-1.666364;-0.6703765;
1584542907;974468;623;466695;1584542907;974468;-20.94448;-1.723825;1.343147;
1584542908;61898;623;553968;1584542908;61898;-10.68772;-0.07422026;0.629675;
1584542908;147179;623;639229;1584542908;147179;-9.220071;3.861847;-4.556166;
1584542908;239827;623;731968;1584542908;239827;-15.6916;-5.609614;-3.37343;
1584542908;262462;623;754522;1584542908;262462;-9.679757;-3.639187;-2.343923;
1584542908;351791;623;843958;1584542908;351791;-8.992621;6.497863;-1.173159;
1584542908;380291;623;872643;1584542908;380291;-15.10502;2.863465;-3.184288;
1584542908;470499;623;968147;1584542908;470499;-13.99411;-1.594538;-2.126051;
1584542908;562136;624;54211;1584542908;562136;-14.42985;0.7996634;1.84593;
1584542908;595296;624;88555;1584542908;595296;-11.88242;0.6655881;-1.455675;
1584542908;633574;624;127560;1584542908;633574;-17.97088;-6.533776;1.043872;
1584542908;712700;624;204980;1584542908;712700;-4.76925;1.532289;-0.8044518;
1584542908;731984;624;229657;1584542908;731984;-6.495469;-1.752556;-0.09816227;
1584542908;811455;624;303563;1584542908;811455;-16.43859;-3.25372;0.2106898;
1584542908;831798;624;324402;1584542908;831798;-18.30846;-4.718971;-2.501941;
1584542908;912737;624;405045;1584542908;912737;-8.702923;3.632004;-0.8954314;
1584542908;943186;624;435168;1584542908;943186;-8.360552;1.807622;-2.11408;
1584542908;964433;624;456859;1584542908;964433;-6.016629;5.920861;0.1580173;
1584542909;52447;624;544738;1584542909;52447;-7.747637;6.31351;-3.354276;
1584542909;77561;624;574485;1584542909;77561;-7.223306;5.039794;-5.719748;
1584542909;163967;624;656284;1584542909;163967;-0.1029507;2.217031;1.285686;
1584542909;194569;624;687294;1584542909;194569;-17.82483;-0.5506664;-1.513135;
1584542909;277396;624;772653;1584542909;277396;-2.157176;-0.3663129;7.850587;
1584542909;362600;624;854717;1584542909;362600;-6.435614;1.043872;-5.683835;
1584542909;395220;624;888514;1584542909;395220;0.3399766;2.123657;9.528923;
1584542909;479304;624;975196;1584542909;479304;-14.44661;0.8858546;-2.384625;
1584542909;562603;625;54739;1584542909;562603;-7.711723;1.503559;4.27365;
1584542909;596565;625;89617;1584542909;596565;-10.01495;1.407791;-3.948039;
1584542909;699180;625;192384;1584542909;699180;-7.757214;2.315193;5.262455;
1584542909;786761;625;279906;1584542909;786761;-12.16733;-2.463634;1.450886;
1584542909;813491;625;306692;1584542909;813491;-6.816292;1.146823;4.55856;
1584542909;901650;625;393896;1584542909;901650;-19.22305;-7.129932;-1.96564;
1584542909;990256;625;483167;1584542909;990256;-8.743625;0.9911995;-2.236184;
1584542910;18534;625;511575;1584542910;18534;-10.71166;5.228936;-6.55293;
1584542910;108348;625;600918;1584542910;108348;-10.40999;1.881842;0.7422025;
1584542910;133489;625;625846;1584542910;133489;-9.016563;2.152387;0.2466028;
1584542910;220150;625;720586;1584542910;220150;-6.924031;-3.909731;-1.268927;
1584542910;313319;625;805657;1584542910;313319;-11.63582;-2.274492;-5.810728;
1584542910;405856;625;898060;1584542910;405856;-10.27112;1.09415;-3.971981;
1584542910;432658;625;929966;1584542910;432658;-13.30218;-0.7493851;-10.5297;
1584542910;513626;626;6044;1584542910;513626;-5.020641;1.941698;-6.634333;
1584542910;544775;626;37284;1584542910;544775;-4.635174;8.008605;2.231396;
1584542910;567746;626;60834;1584542910;567746;-14.9877;-3.948039;-2.844311;
1584542910;598788;626;94577;1584542910;598788;-10.16339;-1.549048;2.83234;
1584542910;698897;626;191022;1584542910;698897;-5.444415;-1.381454;5.262455;
1584542910;728275;626;221522;1584542910;728275;-13.64216;-4.39336;-4.359841;
1584542910;813975;626;306055;1584542910;813975;-16.57266;0.7541735;-5.284003;
1584542910;903898;626;400709;1584542910;903898;-5.3678;1.582567;7.807492;
1584542910;934900;626;427099;1584542910;934900;-8.310274;-5.315128;1.209072;
1584542911;13964;626;506062;1584542911;13964;-11.63103;-1.33357;1.805228;
1584542911;39127;626;541205;1584542911;39127;-10.33098;3.114856;5.832275;
1584542911;123994;626;616478;1584542911;123994;-10.39323;-1.017536;-5.753267;
1584542911;213976;626;706045;1584542911;213976;-9.483433;0.8140286;-2.236184;
1584542911;302200;626;794997;1584542911;302200;-14.26465;-0.1675941;1.735796;
1584542911;330638;626;823934;1584542911;330638;-10.74278;-0.6344634;-1.917755;
1584542911;356852;626;849256;1584542911;356852;-9.167398;1.407791;0.6919243;
1584542911;390491;626;882939;1584542911;390491;-12.53365;-1.915361;-0.1819593;
1584542911;469138;626;961371;1584542911;469138;-6.998251;-4.149151;-0.8571242;
1584542911;492605;626;984728;1584542911;492605;-13.89355;-2.552219;1.115698;
1584542911;574102;627;66330;1584542911;574102;-7.141903;6.026206;4.833893;
1584542911;597926;627;89975;1584542911;597926;-14.85363;-0.8212112;0.7398083;
1584542911;707982;627;204560;1584542911;707982;-13.86243;3.028665;2.676718;
1584542911;796359;627;288770;1584542911;796359;-12.93587;-0.4884171;-7.273585;
1584542911;826540;627;318849;1584542911;826540;-10.40041;5.549759;1.163582;
1584542911;919045;627;411002;1584542911;919045;-11.53287;-5.50427;5.8634;
1584542911;945530;627;446360;1584542911;945530;-1.929726;11.54963;-3.260903;
1584542912;29633;627;521932;1584542912;29633;-10.01495;-10.17536;-1.18513;
1584542912;56650;627;549035;1584542912;56650;-9.533711;6.294356;-1.833959;
1584542912;143455;627;635532;1584542912;143455;-13.49851;4.563348;1.807622;
1584542912;165622;627;658271;1584542912;165622;-13.45062;-1.465251;-2.712631;
1584542912;188299;627;680637;1584542912;188299;-7.49864;0.6823475;0.6943185;
1584542912;289310;627;786894;1584542912;289310;-14.84166;-9.287108;-8.075643;
1584542912;379929;627;872163;1584542912;379929;-2.173935;3.004723;0.8762778;
1584542912;404946;627;897246;1584542912;404946;-7.726089;-1.09415;-1.644817;
1584542912;490367;627;982538;1584542912;490367;-7.237672;0.830788;-4.058172;
1584542912;513550;628;8620;1584542912;513550;-4.824317;5.219359;-2.516306;
1584542912;610107;628;104609;1584542912;610107;-13.16332;1.35033;2.319981;
1584542912;721226;628;213224;1584542912;721226;-5.353435;-3.605668;2.027889;
1584542912;810313;628;302425;1584542912;810313;-13.24472;-0.6344634;-2.1883;
1584542912;855510;628;348280;1584542912;855510;-4.280833;0.5889736;0.818817;
1584542912;934064;628;439202;1584542912;934064;-6.550536;-5.710171;-0.1987187;
1584542913;26427;628;518646;1584542913;26427;-1.482011;10.58955;2.561796;
1584542913;115247;628;607363;1584542913;115247;-7.469909;8.14268;-2.956839;
1584542913;210904;628;703026;1584542913;210904;-18.78251;-3.500323;-0.05506664;
1584542913;311125;628;803205;1584542913;311125;-5.501875;4.805163;-0.1268927;
1584542913;346712;628;842969;1584542913;346712;-4.51307;1.386243;0.7015011;
1584542913;429094;628;932458;1584542913;429094;-7.594408;0.7230489;-10.78109;
1584542913;520809;629;13020;1584542913;520809;-12.07635;-0.1843535;1.015141;
1584542913;617207;629;109493;1584542913;617207;-6.682217;-4.539406;-4.479551;
1584542913;643253;629;135986;1584542913;643253;-9.495404;1.261744;-0.5746084;
1584542913;757295;629;249546;1584542913;757295;-10.54167;-0.950498;3.928885;
1584542913;833239;629;326258;1584542913;833239;-11.14501;0.7493851;-7.335834;
1584542913;934220;629;426311;1584542913;934220;7.381324;-4.469975;-1.654393;
1584542914;34316;629;526415;1584542914;34316;-6.414066;6.114791;-3.244143;
1584542914;134543;629;626636;1584542914;134543;-11.94946;-2.456451;0.8690952;
1584542914;221470;629;714593;1584542914;221470;-12.14339;-1.991976;1.582567;
1584542914;313634;629;805978;1584542914;313634;-10.78109;-3.385401;-1.103727;
1584542914;396378;629;888755;1584542914;396378;-14.69082;0.9481038;5.44202;
1584542914;415392;629;907470;1584542914;415392;-8.954314;-0.7302315;-3.476381;
1584542914;501538;629;993781;1584542914;501538;-8.865728;-3.665523;-0.8571242;
1584542914;519838;630;12146;1584542914;519838;-9.540894;4.278439;4.331111;
1584542914;601589;630;93820;1584542914;601589;-7.694964;1.891419;1.458069;
1584542914;686293;630;179007;1584542914;686293;-13.13938;-6.440403;1.431733;
1584542914;701860;630;193941;1584542914;701860;-11.57596;-4.058172;-2.643199;
1584542914;720310;630;212809;1584542914;720310;-2.492364;7.070077;2.827552;
1584542914;759159;630;256293;1584542914;759159;-9.68694;5.463568;2.106897;
1584542914;832224;630;324480;1584542914;832224;-7.149086;-1.704672;-4.031836;
1584542914;926552;630;418658;1584542914;926552;-6.007052;-2.286463;-2.413355;
1584542915;26589;630;518688;1584542915;26589;-9.775525;-1.517924;-1.405396;
1584542915;112301;630;611791;1584542915;112301;-8.046912;-2.32477;-4.436456;
1584542915;139773;630;632174;1584542915;139773;-11.98537;6.629544;-1.56102;
1584542915;160633;630;653608;1584542915;160633;-6.615179;1.716643;-0.6344634;
1584542915;182463;630;674559;1584542915;182463;-10.50815;-2.6839;-5.030218;
1584542915;277440;630;769809;1584542915;277440;-12.87362;2.961627;-1.501164;
1584542915;293533;630;793955;1584542915;293533;-10.96544;-5.121197;-3.593697;
1584542915;382408;630;874505;1584542915;382408;-9.129091;-0.4046201;-2.293645;
1584542915;399230;630;900134;1584542915;399230;-13.92707;-2.810793;-0.581791;
1584542915;482214;630;974345;1584542915;482214;-14.82969;-4.254497;0.09816227;
1584542915;498983;630;991952;1584542915;498983;-14.38915;2.8491;-0.8236054;
1584542915;516937;631;12211;1584542915;516937;-8.106767;2.133234;1.905784;
1584542915;536126;631;34312;1584542915;536126;-7.386112;2.56419;5.260061;
1584542915;633082;631;125301;1584542915;633082;-13.61343;0.3591303;0.7613561;
1584542915;702066;631;194185;1584542915;702066;-8.427589;-5.329493;-5.736507;
1584542915;718505;631;213891;1584542915;718505;-7.319075;-0.08858546;-4.623203;
1584542915;744631;631;237142;1584542915;744631;-13.23754;-2.964022;6.464345;
1584542915;782090;631;274184;1584542915;782090;-13.94862;0.5123591;-3.742137;
1584542915;852596;631;348290;1584542915;852596;-7.433996;-3.53863;1.45328;
1584542915;947988;631;440253;1584542915;947988;-13.16572;5.307945;-1.697489;
1584542915;967374;631;460045;1584542915;967374;-14.85842;-6.579266;1.929726;
1584542916;52743;631;544938;1584542916;52743;-11.31739;2.896984;-0.9457096;
1584542916;147891;631;640044;1584542916;147891;-7.249643;-4.630386;-3.73256;
1584542916;168539;631;661268;1584542916;168539;-12.48337;2.693477;-5.56173;
1584542916;252862;631;745048;1584542916;252862;-5.798757;0.3711013;-2.99754;
1584542916;272963;631;774339;1584542916;272963;-13.49611;-0.878672;5.736507;
1584542916;360639;631;853220;1584542916;360639;-10.84813;3.114856;-0.9983821;
1584542916;384379;631;885359;1584542916;384379;-7.230489;2.949656;0.8978256;
1584542916;468041;631;960390;1584542916;468041;-7.893683;6.14831;-4.175488;
1584542916;558241;632;53385;1584542916;558241;-6.019023;5.281609;1.685518;
1584542916;582187;632;74023;1584542916;582187;-9.955091;3.593697;5.645527;
1584542916;713582;632;205963;1584542916;713582;-11.28387;-3.833117;-0.8643068;
1584542916;808073;632;300876;1584542916;808073;-11.88482;-2.971204;-4.553771;
1584542916;832602;632;324719;1584542916;832602;-16.48887;1.352724;4.230554;
1584542916;855772;632;348148;1584542916;855772;-6.528988;-4.970363;-7.273585;
1584542916;962573;632;454578;1584542916;962573;-11.40119;1.414973;6.399701;
1584542917;53271;632;545500;1584542917;53271;-2.619257;0.9265561;-3.093308;
1584542917;78507;632;570562;1584542917;78507;-19.76653;2.954445;4.522647;
1584542917;163649;632;655809;1584542917;163649;-16.12016;-6.227318;-9.545682;
1584542917;193539;632;685893;1584542917;193539;-7.335834;-1.656788;4.84347;
1584542917;276731;632;769038;1584542917;276731;-5.844246;5.315128;4.206612;
1584542917;308065;632;801142;1584542917;308065;-10.59434;-4.955997;-9.208099;
1584542917;383917;632;876788;1584542917;383917;-11.74117;-0.5793968;0.4477157;
1584542917;413120;632;905877;1584542917;413120;-9.797073;3.866636;-0.3160346;
1584542917;435880;632;928962;1584542917;435880;-3.684676;-4.886566;3.177106;
1584542917;523848;633;16100;1584542917;523848;-11.98298;-4.735731;2.750938;
1584542917;548561;633;42077;1584542917;548561;-9.315839;4.771644;-3.452439;
1584542917;575093;633;68178;1584542917;575093;-10.04368;1.984793;-4.793192;
1584542917;676564;633;169950;1584542917;676564;-10.97263;-0.1508347;3.818752;
1584542917;768240;633;260423;1584542917;768240;-18.002;3.519476;0.03830723;
1584542917;793372;633;287410;1584542917;793372;-6.421249;2.032677;-2.875436;
1584542917;820612;633;312998;1584542917;820612;-15.37796;3.406949;1.455675;
1584542917;843954;633;336277;1584542917;843954;-14.4945;-0.5722142;5.114015;
1584542917;940158;633;433383;1584542917;940158;-4.225766;-0.4333505;7.366959;
1584542918;24419;633;516694;1584542918;24419;-15.59344;-10.40759;1.290475;
1584542918;59206;633;551198;1584542918;59206;-9.945514;3.720589;-3.531447;
1584542918;142102;633;634306;1584542918;142102;-17.70512;-6.607996;7.103596;
1584542918;229218;633;725320;1584542918;229218;-16.85039;-0.2896984;1.419762;
1584542918;329887;633;822021;1584542918;329887;-12.90714;0.2777274;-1.381454;
1584542918;363263;633;855287;1584542918;363263;-7.307104;-4.280833;0.5315128;
1584542918;456905;633;949286;1584542918;456905;-5.317522;0.6009446;-6.069301;
1584542918;478045;633;974448;1584542918;478045;-3.86903;0.4740519;2.197877;
1584542918;564579;634;56847;1584542918;564579;-10.05565;2.166753;2.899378;
1584542918;588859;634;81181;1584542918;588859;-12.73715;3.770868;0.9911995;
1584542918;690042;634;181931;1584542918;690042;-7.484274;1.879448;-5.130774;
1584542918;720471;634;212892;1584542918;720471;-13.96538;4.855441;2.372654;
1584542918;814538;634;306439;1584542918;814538;-20.20706;-1.154005;-6.17704;
1584542918;850264;634;342601;1584542918;850264;-5.300763;3.421314;-3.773262;
1584542918;929184;634;421306;1584542918;929184;-1.826776;2.322376;5.655104;
1584542919;19937;634;512189;1584542919;19937;-4.053383;8.944737;-3.526659;
1584542919;40592;634;536671;1584542919;40592;-10.33337;-1.608904;5.15711;
1584542919;120323;634;612540;1584542919;120323;-10.40281;-5.877765;-1.644817;
1584542919;147084;634;639276;1584542919;147084;-9.722853;11.40358;2.243367;
1584542919;172300;634;664724;1584542919;172300;-10.99657;0.9911995;2.070984;
1584542919;260422;634;752884;1584542919;260422;-5.899313;-0.1364695;-4.225766;
1584542919;292810;634;785856;1584542919;292810;-15.35162;-1.278504;6.950367;
1584542919;375229;634;867320;1584542919;375229;-6.562507;1.87466;-1.45328;
1584542919;400678;634;892996;1584542919;400678;-12.04762;3.679888;8.236053;
1584542919;479730;634;971966;1584542919;479730;-4.944026;4.649539;3.928885;
1584542919;504146;634;996790;1584542919;504146;-16.56069;-1.046266;-0.3854665;
1584542919;590036;635;85241;1584542919;590036;-12.03805;-3.849876;-11.29105;
1584542919;690053;635;181763;1584542919;690053;-4.618415;2.607285;-0.2394202;
1584542919;775599;635;267860;1584542919;775599;-11.21444;-5.336676;-5.734113;
1584542919;798706;635;292000;1584542919;798706;-7.589619;6.01184;0.5674258;
1584542919;880775;635;373029;1584542919;880775;-9.23683;4.522647;-2.636016;
1584542919;904470;635;396781;1584542919;904470;-11.25993;3.081337;4.321534;
1584542919;985553;635;477733;1584542919;985553;-8.834604;-1.029507;-2.980781;
1584542920;14006;635;512414;1584542920;14006;-9.856928;5.228936;1.596933;
1584542920;102288;635;595168;1584542920;102288;-6.576872;-1.276109;4.381389;
1584542920;138541;635;630488;1584542920;138541;-12.59829;-3.3447;-5.473145;
1584542920;221659;635;718752;1584542920;221659;-9.653421;5.494693;-0.6272808;
1584542920;315689;635;812376;1584542920;315689;-9.0429;5.312734;-0.4572925;
1584542920;410912;635;902997;1584542920;410912;-4.994305;4.853047;-4.908113;
1584542920;503127;635;997096;1584542920;503127;-5.403713;3.672705;6.983886;
1584542920;542186;636;34454;1584542920;542186;-5.319916;-3.928885;-11.93031;
1584542920;636267;636;128502;1584542920;636267;-7.596802;-4.771644;-1.731008;
1584542920;660324;636;152580;1584542920;660324;-6.943185;-0.1771709;4.10845;
1584542920;685630;636;177914;1584542920;685630;-12.95502;-0.6200982;0.9361328;
1584542920;711692;636;203992;1584542920;711692;-5.121197;-3.354276;-3.150769;
1584542920;800892;636;296746;1584542920;800892;-5.099649;2.576161;1.407791;
1584542920;833924;636;325941;1584542920;833924;-10.87446;3.021482;-0.9217677;
1584542920;921274;636;417246;1584542920;921274;-2.178724;1.529895;-2.243367;
1584542921;16633;636;508940;1584542921;16633;-14.5759;1.510741;0.5171475;
1584542921;109449;636;602605;1584542921;109449;-11.08755;-2.60968;-8.753201;
1584542921;201594;636;693774;1584542921;201594;-9.756371;-2.540248;0.9050083;
1584542921;226055;636;718145;1584542921;226055;-11.06121;-2.106897;-1.733402;
1584542921;321929;636;813975;1584542921;321929;-9.011775;-4.328717;-3.864241;
1584542921;417567;636;909940;1584542921;417567;-9.710882;4.608838;-1.297657;
1584542921;506847;637;2120;1584542921;506847;-7.958326;2.147599;-7.704541;
1584542921;530523;637;22994;1584542921;530523;-6.46195;-1.221043;0.213084;
1584542921;632719;637;125149;1584542921;632719;-11.64061;-2.195483;-3.933673;
1584542921;722038;637;214104;1584542921;722038;-7.311892;2.430115;-2.274492;
1584542921;815920;637;308872;1584542921;815920;-5.956774;9.560047;2.319981;
1584542921;851628;637;343544;1584542921;851628;-11.52569;-5.068525;-1.714248;
1584542921;938499;637;436766;1584542921;938499;-11.25993;-1.307234;0.08619126;
1584542922;34128;637;526066;1584542922;34128;-7.211335;-1.383849;-0.7757213;
1584542922;122427;637;614514;1584542922;122427;-11.26711;6.947973;-2.312799;
1584542922;212274;637;708423;1584542922;212274;-10.22803;0.02154781;-1.714248;
1584542922;312358;637;808528;1584542922;312358;-2.899378;7.563283;1.108515;
1584542922;350070;637;845748;1584542922;350070;-4.311957;5.643133;0.8451532;
1584542922;432326;637;930250;1584542922;432326;-12.45703;-0.04788403;-1.264138;
1584542922;527991;638;20269;1584542922;527991;-10.08198;0.2011129;1.199495;
1584542922;635026;638;127125;1584542922;635026;-8.623915;1.007959;-3.581726;
1584542922;660715;638;157439;1584542922;660715;-6.236896;-4.994305;-0.4213795;
1584542922;752067;638;245022;1584542922;752067;-1.766921;2.267309;2.636016;
1584542922;833062;638;325367;1584542922;833062;-2.382231;7.620744;0.8164228;
1584542922;870828;638;364181;1584542922;870828;-8.152257;5.822699;-0.2920926;
1584542922;948322;638;440784;1584542922;948322;-9.813832;-5.284003;-3.268085;
1584542922;976573;638;469449;1584542922;976573;-3.799598;-1.781286;-3.426103;
1584542923;2444;638;494510;1584542923;2444;-17.39388;-1.84593;-2.075773;
1584542923;27492;638;520661;1584542923;27492;-12.3469;-6.833052;-0.782904;
1584542923;112953;638;605123;1584542923;112953;-7.323863;4.764462;1.266533;
1584542923;147275;638;639693;1584542923;147275;-10.84334;3.65834;-2.03986;
1584542923;244962;638;737963;1584542923;244962;-16.38831;-4.505888;-5.846641;
1584542923;333906;638;833086;1584542923;333906;-12.89517;-1.766921;0.4285621;
1584542923;364287;638;856737;1584542923;364287;-6.526594;-2.925714;5.214571;
1584542923;453179;638;945443;1584542923;453179;-18.84955;-6.43322;-1.297657;
1584542923;482191;638;974247;1584542923;482191;-18.68196;-7.963115;2.568978;
1584542923;508401;639;820;1584542923;508401;-3.450045;0.866701;1.884237;
1584542923;535015;639;27168;1584542923;535015;-9.80665;0.4884171;-0.7805098;
1584542923;555905;639;48927;1584542923;555905;-9.088389;0.5219359;-5.11162;
1584542923;585454;639;77946;1584542923;585454;-13.09868;-4.493917;2.059013;
1584542923;668295;639;164712;1584542923;668295;-10.92953;3.502717;-2.92332;
1584542923;697280;639;189554;1584542923;697280;-5.920861;-2.061408;-4.206612;
1584542923;724327;639;216724;1584542923;724327;-6.076484;5.712565;5.650316;
1584542923;808472;639;300773;1584542923;808472;-11.3557;-0.5123591;2.25055;
1584542923;828086;639;324585;1584542923;828086;-11.40358;-1.726219;4.594473;
1584542923;914051;639;406128;1584542923;914051;-3.320758;1.146823;2.298434;
1584542923;947019;639;439833;1584542923;947019;-4.750096;4.074931;-3.191471;
1584542924;24027;639;516272;1584542924;24027;-15.60301;0.296881;1.242591;
1584542924;110354;639;602536;1584542924;110354;-18.3731;-1.072602;4.826711;
1584542924;134931;639;636275;1584542924;134931;-9.354146;-1.09415;3.361459;
1584542924;224126;639;716384;1584542924;224126;-13.86961;-8.542512;3.323152;
1584542924;314515;639;806593;1584542924;314515;-11.19529;1.058237;3.055001;
1584542924;337645;639;831275;1584542924;337645;-14.60224;4.110844;0.6033388;
1584542924;428489;639;920723;1584542924;428489;-8.049306;-5.985504;-5.813122;
1584542924;514450;640;6501;1584542924;514450;-10.8194;-0.6200982;-0.4932055;
1584542924;539230;640;42524;1584542924;539230;-13.23515;-2.396596;-3.979163;
1584542924;630426;640;120994;1584542924;630426;-13.54879;-0.02154781;2.485181;
1584542924;653310;640;145565;1584542924;653310;-19.02672;-3.895366;4.805163;
1584542924;674064;640;166147;1584542924;674064;-10.48421;3.311181;-1.376666;
1584542924;759180;640;251032;1584542924;759180;-5.770026;-2.291251;-2.116474;
1584542924;787885;640;282932;1584542924;787885;-3.241749;8.51857;3.421314;
1584542924;864472;640;356925;1584542924;864472;-14.26226;-0.9600748;1.328782;
1584542924;896429;640;388869;1584542924;896429;-10.51294;-0.09816227;-6.897695;
1584542924;920894;640;413356;1584542924;920894;-10.84813;-0.818817;-2.664747;
1584542924;956379;640;448764;1584542924;956379;-6.256049;-2.41575;-1.522712;
1584542925;34169;640;526371;1584542925;34169;-16.40986;1.218649;-3.093308;
1584542925;124428;640;616635;1584542925;124428;-14.04199;-7.326257;-2.219425;
1584542925;159312;640;651350;1584542925;159312;-7.553706;-6.229712;1.374272;
1584542925;247589;640;740727;1584542925;247589;-4.996699;3.782839;0.05506664;
1584542925;275199;640;769004;1584542925;275199;-10.27591;-1.422156;0.950498;
1584542925;359428;640;851469;1584542925;359428;-10.1993;-1.793257;-3.627216;
1584542925;385357;640;881522;1584542925;385357;-8.315063;-1.362301;0.1939303;
1584542925;464960;640;957221;1584542925;464960;-8.53054;-3.22499;-3.301604;
1584542925;493281;640;987393;1584542925;493281;-9.052477;2.269703;1.510741;
1584542925;574461;641;67052;1584542925;574461;-11.80581;0.4189853;6.845023;
1584542925;665040;641;157293;1584542925;665040;-16.21353;-5.176264;-1.441309;
1584542925;695341;641;190446;1584542925;695341;-11.9758;-3.691859;-2.533065;
1584542925;722081;641;215921;1584542925;722081;-8.90643;3.725378;7.019799;
1584542925;744175;641;236462;1584542925;744175;-5.913678;3.284845;0.4141969;
1584542925;771464;641;263841;1584542925;771464;-18.48563;-2.918532;-6.981492;
1584542925;861987;641;354129;1584542925;861987;-8.8777;6.045359;2.987964;
1584542925;885265;641;378343;1584542925;885265;-9.222465;10.18254;0.8451532;
1584542925;970088;641;462142;1584542925;970088;-13.55597;-2.013524;-3.679888;
1584542926;2079;641;494496;1584542926;2079;-12.45464;-4.472369;-5.501875;
1584542926;25228;641;517671;1584542926;25228;-4.10845;4.750096;5.980716;
1584542926;50693;641;542728;1584542926;50693;-16.05073;-4.338294;-2.121263;
1584542926;76777;641;569301;1584542926;76777;-4.905719;0.8595184;-1.192312;
1584542926;165645;641;657901;1584542926;165645;-7.03177;-0.7062895;2.547431;
1584542926;188390;641;682123;1584542926;188390;-5.410896;0.8164228;1.666364;
1584542926;275393;641;767489;1584542926;275393;-10.47703;4.201824;0.6512228;
1584542926;366442;641;859359;1584542926;366442;-12.41394;1.132457;-2.904167;
1584542926;391768;641;883895;1584542926;391768;-9.404424;5.190629;-1.312023;
1584542926;470491;641;962570;1584542926;470491;-13.18487;-1.486799;-1.283292;
1584542926;500138;641;992216;1584542926;500138;-12.40196;-1.264138;1.549048;
1584542926;530704;642;23683;1584542926;530704;-18.62928;-4.479551;-5.291186;
1584542926;605565;642;101600;1584542926;605565;-5.865794;7.328651;3.904943;
1584542926;636322;642;128932;1584542926;636322;-4.098873;5.664681;-0.4453215;
1584542926;658925;642;151008;1584542926;658925;-8.942343;-2.94008;2.743755;
1584542926;745506;642;237659;1584542926;745506;-6.481104;2.597709;8.722076;
1584542926;770809;642;262853;1584542926;770809;-10.59195;4.491522;5.166687;
1584542926;792094;642;285414;1584542926;792094;-4.738125;4.948815;3.96001;
1584542926;876574;642;368964;1584542926;876574;-12.21282;-8.427589;-1.163582;
1584542926;902819;642;398814;1584542926;902819;-11.80581;-4.525041;-2.13084;
1584542926;991123;642;483390;1584542926;991123;-9.050082;0.05985504;-2.971204;
1584542927;76631;642;569034;1584542927;76631;-4.400543;-2.911349;1.572991;
1584542927;99081;642;600520;1584542927;99081;-11.74835;-2.918532;6.481104;
1584542927;191045;642;683130;1584542927;191045;-11.43231;-0.2896984;2.229002;
1584542927;276658;642;769070;1584542927;276658;-4.905719;3.11725;1.477222;
1584542927;299248;642;795401;1584542927;299248;-12.5528;-2.006341;-4.845864;
1584542927;386188;642;878246;1584542927;386188;-3.883395;4.486734;-1.225831;
1584542927;418619;642;911528;1584542927;418619;-10.73321;0.5099649;-6.114791;
1584542927;512512;643;4635;1584542927;512512;-8.827421;-3.244143;-3.184288;
1584542927;601801;643;97946;1584542927;601801;-4.041412;8.781932;-2.355894;
1584542927;701404;643;232741;1584542927;701404;-11.66694;-4.759673;2.523489;
1584542927;823992;643;316358;1584542927;823992;-10.8601;2.006341;5.161899;
1584542927;918099;643;410541;1584542927;918099;-10.82658;0.01675941;-5.2026;
1584542928;10958;643;502800;1584542928;10958;-3.876213;6.086061;-1.644817;
1584542928;91350;643;583441;1584542928;91350;-5.65271;0.07182605;-1.501164;
1584542928;121592;643;616315;1584542928;121592;-7.173028;-0.2705448;-2.477999;
1584542928;214082;643;706473;1584542928;214082;-10.39083;3.150769;4.118027;
1584542928;259707;643;751785;1584542928;259707;-15.91186;-7.661445;-0.4046201;
1584542928;357439;643;849783;1584542928;357439;-5.216965;2.485181;1.374272;
1584542928;382114;643;875067;1584542928;382114;-5.305551;2.530671;-0.1173159;
1584542928;404578;643;896963;1584542928;404578;-19.40022;-6.605602;-0.9481038;
1584542928;492340;643;984588;1584542928;492340;-7.716512;-2.540248;-3.904943;
1584542928;513901;644;7441;1584542928;513901;-8.453926;-2.054225;0.9289503;
1584542928;640801;644;133016;1584542928;640801;-14.74589;0.8954314;-1.441309;
1584542928;667816;644;160192;1584542928;667816;-0.2992752;4.745308;3.58412;
1584542928;693074;644;185469;1584542928;693074;-23.06574;-4.149151;0.6727707;
1584542928;772145;644;264421;1584542928;772145;-11.22881;5.899313;-1.237802;
1584542928;797596;644;290113;1584542928;797596;-13.81454;5.355829;3.32794;
1584542928;821352;644;313636;1584542928;821352;-7.797915;5.025429;-0.3806781;
1584542928;907219;644;399312;1584542928;907219;-20.88701;-2.901772;-0.9265561;
1584542928;938657;644;430529;1584542928;938657;-11.8489;-3.933673;-3.605668;
1584542929;27392;644;519845;1584542929;27392;-5.051765;-2.0231;0.818817;
1584542929;122614;644;616103;1584542929;122614;-5.911284;4.235343;3.155558;
1584542929;223669;644;716027;1584542929;223669;-8.286332;7.261614;2.418144;
1584542929;328031;644;820294;1584542929;328031;-12.06678;2.116474;-0.7972692;
1584542929;412653;644;904827;1584542929;412653;-15.41866;0.1819593;-0.1508347;
1584542929;503232;644;995307;1584542929;503232;-8.992621;1.086968;6.059724;
1584542929;587403;645;82028;1584542929;587403;-7.759608;0.6560113;-0.8355764;
1584542929;630064;645;122086;1584542929;630064;-6.47871;0.08619126;0.5386954;
1584542929;712536;645;204803;1584542929;712536;-6.143521;-0.7637503;-1.149217;
1584542929;747056;645;239007;1584542929;747056;-15.59104;-2.980781;0.6823475;
1584542929;833243;645;325445;1584542929;833243;-5.762844;7.182605;3.062184;
1584542929;861642;645;353881;1584542929;861642;-19.30205;-2.509123;-9.414001;
1584542929;949897;645;442042;1584542929;949897;-13.42189;3.402161;1.649605;
1584542929;976181;645;468761;1584542929;976181;-4.237737;1.00317;3.256114;
1584542930;1154;645;493578;1584542930;1154;-3.201048;-3.833117;3.035848;
1584542930;26534;645;526603;1584542930;26534;-7.491457;3.61285;-0.950498;
1584542930;113150;645;605343;1584542930;113150;-13.54879;-0.3878607;1.276109;
1584542930;151697;645;645733;1584542930;151697;-12.29423;-4.67827;1.742979;
1584542930;233605;645;725855;1584542930;233605;-10.56561;-3.655946;1.211466;
1584542930;333300;645;825572;1584542930;333300;-4.165911;-2.987964;-2.331952;
1584542930;433407;645;925676;1584542930;433407;-3.102885;5.2026;3.136404;
1584542930;542037;646;34355;1584542930;542037;-10.66856;8.554482;6.078878;
1584542930;568580;646;63996;1584542930;568580;-2.671929;4.381389;6.945579;
1584542930;594550;646;86688;1584542930;594550;-12.20085;-1.041478;-0.308852;
1584542930;693868;646;185993;1584542930;693868;-12.79461;1.101333;-6.05733;
1584542930;719616;646;212005;1584542930;719616;-8.865728;-0.8978256;-2.197877;
1584542930;806318;646;299146;1584542930;806318;-8.896853;0.6081272;-4.608838;
1584542930;893542;646;385832;1584542930;893542;-4.726154;9.138668;2.686294;
1584542930;918722;646;411189;1584542930;918722;-3.234566;6.10282;1.051054;
1584542931;14023;646;506076;1584542931;14023;-16.93179;5.542577;2.501941;
1584542931;98377;646;590442;1584542931;98377;-11.07318;0.2681506;4.043807;
1584542931;123623;646;615887;1584542931;123623;-13.31894;-0.4908113;-2.200271;
1584542931;214411;646;707294;1584542931;214411;-6.938396;-1.362301;0.6272808;
1584542931;304251;646;800076;1584542931;304251;-7.364564;3.394978;-6.801927;
1584542931;334240;646;834557;1584542931;334240;-9.397242;1.142034;-4.149151;
1584542931;419702;646;912049;1584542931;419702;-11.39161;7.843405;-3.670311;
1584542931;450469;646;943114;1584542931;450469;-10.86728;4.891354;0.4692635;
1584542931;540887;647;33237;1584542931;540887;-3.564966;3.74932;1.647211;
1584542931;568655;647;60959;1584542931;568655;-12.08593;1.601721;4.979939;
1584542931;595072;647;87403;1584542931;595072;-12.73236;-4.436456;-0.1604115;
1584542931;694319;647;186632;1584542931;694319;-17.02756;-3.892972;-1.029507;
1584542931;717288;647;209531;1584542931;717288;-14.15691;-0.296881;2.588132;
1584542931;805955;647;298150;1584542931;805955;-12.20325;-3.742137;-2.274492;
1584542931;844025;647;336269;1584542931;844025;-6.253655;-4.029441;-1.936909;
1584542931;942840;647;434857;1584542931;942840;-13.57512;-4.63278;-0.7757213;
1584542932;24660;647;517283;1584542932;24660;-9.277532;-2.717419;-1.601721;
1584542932;119677;647;611854;1584542932;119677;-6.052542;-2.48997;1.067814;
1584542932;209626;647;702068;1584542932;209626;-8.197746;4.175488;-2.133234;
1584542932;231298;647;739208;1584542932;231298;-7.510611;0.4836287;7.503428;
1584542932;344839;647;837404;1584542932;344839;-8.633492;5.628768;4.089296;
1584542932;375306;647;867372;1584542932;375306;-12.08354;-2.753332;2.305616;
1584542932;400398;647;892780;1584542932;400398;-15.1529;-4.431667;-2.844311;
1584542932;423436;647;915594;1584542932;423436;-6.885724;-0.9481038;3.320758;
1584542932;532234;648;24476;1584542932;532234;-12.21043;-7.273585;4.616021;
1584542932;559774;648;52110;1584542932;559774;-13.18966;-3.318363;2.777274;
1584542932;586605;648;83662;1584542932;586605;-11.2743;2.585738;5.154716;
1584542932;671258;648;163522;1584542932;671258;-16.07706;-4.742914;-1.434127;
1584542932;696716;648;189129;1584542932;696716;-10.06283;-4.489128;-1.640028;
1584542932;775708;648;268122;1584542932;775708;-7.951144;-2.521094;1.388637;
1584542932;801446;648;294566;1584542932;801446;-4.52983;2.142811;-1.096544;
1584542932;826011;648;318162;1584542932;826011;-2.463634;6.521805;0.5075707;
1584542932;914902;648;406897;1584542932;914902;-19.34036;-6.512228;0.3256114;
1584542933;4964;648;497149;1584542933;4964;-14.5328;-7.912837;1.932121;
1584542933;25343;648;517776;1584542933;25343;-17.31487;-6.452374;-4.000711;
1584542933;115021;648;607113;1584542933;115021;-10.22803;-3.371036;-2.23379;
1584542933;150496;648;642495;1584542933;150496;-6.047753;-3.325546;0.03112462;
1584542933;225044;648;724932;1584542933;225044;-12.87841;2.355894;-5.600038;
1584542933;315690;648;807927;1584542933;315690;-11.77708;1.034295;2.975993;
1584542933;405497;648;897843;1584542933;405497;-9.392453;-2.37026;-8.355763;
1584542933;427224;648;926354;1584542933;427224;-18.00679;-10.9008;-2.736573;
1584542933;535265;649;27641;1584542933;535265;-11.61427;3.478775;2.355894;
1584542933;566759;649;59094;1584542933;566759;-8.801085;4.845864;1.747767;
1584542933;591548;649;83894;1584542933;591548;-15.18403;-1.970428;2.741361;
1584542933;670725;649;163016;1584542933;670725;-18.51436;2.470816;-0.4884171;
1584542933;699599;649;193277;1584542933;699599;-10.52252;5.626374;-2.217031;
1584542933;780137;649;272973;1584542933;780137;-11.86327;-1.070208;0.1675941;
1584542933;861238;649;353455;1584542933;861238;-6.251261;4.414908;2.533065;
1584542933;884799;649;377105;1584542933;884799;-9.710882;3.167529;-5.121197;
1584542933;910143;649;402191;1584542933;910143;-14.50886;-2.061408;-3.155558;
1584542933;941447;649;437574;1584542933;941447;-15.70596;2.920926;-0.2825158;
1584542934;25991;649;526026;1584542934;25991;-4.826711;-0.85473;1.917755;
1584542934;116255;649;608617;1584542934;116255;-4.711789;1.307234;-0.01197101;
1584542934;144307;649;641108;1584542934;144307;-15.14093;-2.312799;1.474828;
1584542934;236330;649;728560;1584542934;236330;-15.47851;-2.229002;-1.209072;
1584542934;326055;649;818135;1584542934;326055;-6.550536;-0.6368576;4.378995;
1584542934;434015;649;926702;1584542934;434015;-9.188946;1.335965;-6.65588;
1584542934;521207;650;13402;1584542934;521207;-10.38126;3.16274;-4.932055;
1584542934;612229;650;104670;1584542934;612229;-13.7906;-4.903325;-3.064578;
1584542934;640272;650;132502;1584542934;640272;-2.245761;-2.882619;0.02633622;
1584542934;669606;650;161863;1584542934;669606;-24.46156;-8.219295;-0.7062895;
1584542934;764172;650;257175;1584542934;764172;-6.40449;2.5187;1.61848;
1584542934;792290;650;284687;1584542934;792290;-13.60146;6.394913;-1.278504;
1584542934;818914;650;311208;1584542934;818914;-8.585608;-0.2825158;0.9409212;
1584542934;839882;650;333053;1584542934;839882;-7.967903;-0.641646;-1.489193;
1584542934;931627;650;423790;1584542934;931627;-13.01249;5.659893;-4.338294;
1584542935;33486;650;526554;1584542935;33486;-9.002198;0.1987187;0.1460463;
1584542935;59382;650;551453;1584542935;59382;-15.00446;-6.780379;-2.671929;
1584542935;89171;650;582514;1584542935;89171;-13.68765;-3.991134;1.106121;
1584542935;176954;650;669204;1584542935;176954;-1.572991;-1.623269;-4.920084;
1584542935;204460;650;696864;1584542935;204460;-9.751583;-1.374272;-10.34056;
1584542935;306900;650;799151;1584542935;306900;-17.28135;-6.107608;5.286397;
1584542935;332752;650;834156;1584542935;332752;-10.76672;-1.872266;-3.177106;
1584542935;422093;650;914624;1584542935;422093;-16.11298;2.626439;-2.379837;
1584542935;454368;650;947417;1584542935;454368;-12.9239;2.703054;-1.917755;
1584542935;542454;651;35229;1584542935;542454;-10.04607;0.6775591;-3.04303;
1584542935;567240;651;62295;1584542935;567240;-13.3357;-3.04303;1.793257;
1584542935;590619;651;87810;1584542935;590619;-0.8451532;-0.2537854;2.954445;
1584542935;618715;651;112595;1584542935;618715;-20.55662;2.47321;0.2418144;
1584542935;702453;651;194513;1584542935;702453;-6.952762;0.5674258;-5.815516;
1584542935;726916;651;218963;1584542935;726916;-7.637503;-2.372654;-2.499547;
1584542935;820371;651;314734;1584542935;820371;-5.810728;1.09415;0.7613561;
1584542935;907203;651;399267;1584542935;907203;-8.528147;-3.588908;2.810793;
1584542935;935476;651;436862;1584542935;935476;-12.3062;8.798691;-0.1795651;
1584542936;24419;651;516766;1584542936;24419;-12.3038;1.144428;-2.044648;
1584542936;58802;651;550638;1584542936;58802;-9.864111;-0.06224924;-2.217031;
1584542936;137539;651;629719;1584542936;137539;-6.940791;2.133234;1.414973;
1584542936;161545;651;653818;1584542936;161545;-11.4371;-0.5267243;3.339911;
1584542936;188276;651;680708;1584542936;188276;0.4165911;0.2537854;4.709394;
1584542936;292727;651;784895;1584542936;292727;-9.797073;1.841141;-0.9888053;
1584542936;320395;651;817879;1584542936;320395;-7.15148;-0.3734955;-2.578555;
1584542936;407596;651;899813;1584542936;407596;-12.69645;-1.209072;-0.344765;
1584542936;492864;651;985050;1584542936;492864;-10.72602;-1.690306;-2.873042;
1584542936;518360;652;10405;1584542936;518360;-7.592013;-1.721431;-1.505953;
1584542936;598020;652;90485;1584542936;598020;-8.973468;1.144428;-0.2202666;
1584542936;623166;652;116388;1584542936;623166;-9.435549;0.05506664;-1.127669;
1584542936;714220;652;207029;1584542936;714220;-8.45632;1.405396;-2.135628;
1584542936;740164;652;232525;1584542936;740164;-9.109938;0.902614;-0.5865794;
1584542936;823116;652;315283;1584542936;823116;-10.21845;-1.055843;-0.9121909;
1584542936;848997;652;341336;1584542936;848997;-10.69011;-0.2226608;-0.2418144;
1584542936;873299;652;366256;1584542936;873299;-9.832986;-1.039083;0.7709329;
1584542936;899422;652;391687;1584542936;899422;-9.888053;1.80044;-1.371878;
1584542936;985891;652;478061;1584542936;985891;-12.94784;0.5889736;-1.441309;
1584542937;8074;652;508429;1584542937;8074;-6.464345;0.4596867;-0.1556231;
1584542937;98268;652;590341;1584542937;98268;-11.13783;0.09337386;-1.101333;
1584542937;129414;652;621899;1584542937;129414;-8.872911;0.2059013;-0.1364695;
1584542937;155181;652;647311;1584542937;155181;-9.773131;0.272939;-0.3399766;
1584542937;179533;652;676198;1584542937;179533;-9.64145;0.01436521;-0.6105214;
1584542937;262371;652;755803;1584542937;262371;-9.852139;0.03830723;-0.4309563;
1584542937;348772;652;841115;1584542937;348772;-9.782708;0.1580173;-0.6584055;
1584542937;373244;652;865484;1584542937;373244;-10.03649;0.1101333;-0.581791;
1584542937;398055;652;890111;1584542937;398055;-10.02931;0.08379706;-0.6967127;
1584542937;426247;652;918502;1584542937;426247;-9.682152;0.05746084;-0.4716577;
1584542937;503659;652;995883;1584542937;503659;-9.904812;0.1125275;-0.5482722;
1584542937;531700;653;23890;1584542937;531700;-9.871293;0.07422026;-0.5722142;
1584542937;557548;653;49744;1584542937;557548;-9.89763;0.06943185;-0.5243301;
1584542937;582730;653;79004;1584542937;582730;-9.971849;0.08140285;-0.6033388;
1584542937;669014;653;161266;1584542937;669014;-9.782708;0.1029507;-0.641646;
1584542937;694071;653;187663;1584542937;694071;-9.974244;0.1101333;-0.5889736;
1584542937;792036;653;284980;1584542937;792036;-9.902418;0.08619126;-0.56982;
1584542937;815670;653;311452;1584542937;815670;-9.840169;0.06703765;-0.6129156;
1584542937;841429;653;336831;1584542937;841429;-9.895235;0.08379706;-0.5219359;
1584542937;929254;653;421458;1584542937;929254;-9.215282;0.06703765;0.4955997;
1584542937;958007;653;450004;1584542937;958007;-11.74595;3.007117;0.1747767;
1584542937;983012;653;475074;1584542937;983012;-9.792285;0.2633622;-0.7326257;
1584542938;59774;653;551981;1584542938;59774;-9.631873;0.7086837;-2.607285;
1584542938;84614;653;576992;1584542938;84614;-9.263166;-0.3950433;-0.6895301;
1584542938;112156;653;604228;1584542938;112156;-10.11071;0.6344634;-0.6440402;
1584542938;188964;653;684291;1584542938;188964;-8.190564;0.605733;-2.679112;
1584542938;212744;653;705056;1584542938;212744;-6.442797;1.991976;-1.479617;
1584542938;327046;653;820753;1584542938;327046;-9.332598;-0.2992752;-0.356736;
1584542938;352246;653;848463;1584542938;352246;-10.9822;0.248997;-0.5841852;
1584542938;434566;653;926631;1584542938;434566;-9.038112;0.3878607;-0.3734955;
1584542938;464772;653;957120;1584542938;464772;-9.904812;0.213084;-1.132457;
1584542938;544444;654;36650;1584542938;544444;-9.907207;0.06703765;-0.5003881;
1584542938;634711;654;126702;1584542938;634711;-10.01255;0.1149217;-0.6799533;
1584542938;660635;654;153913;1584542938;660635;-9.794679;0.06464344;-0.4501099;
1584542938;684678;654;176966;1584542938;684678;-9.816227;0.1532289;-0.5841852;
1584542938;765174;654;257509;1584542938;765174;-9.933542;0.09337386;-0.5650316;
1584542938;790893;654;283056;1584542938;790893;-9.902418;0.08140285;-0.6200982;
1584542938;879108;654;371331;1584542938;879108;-9.88087;0.1149217;-0.557849;
1584542938;965195;654;457391;1584542938;965195;-9.840169;0.1053449;-0.5841852;
1584542938;990086;654;482149;1584542938;990086;-9.842563;0.08379706;-0.641646;
1584542939;78944;654;570810;1584542939;78944;-9.92636;0.1005565;-0.6129156;
1584542939;106698;654;598551;1584542939;106698;-9.852139;0.08379706;-0.5865794;
1584542939;184707;654;676958;1584542939;184707;-9.88087;0.08858546;-0.5482722;
1584542939;235575;654;727564;1584542939;235575;-9.871293;0.08858546;-0.4812345;
