sent.seconds;sent.microseconds;received.seconds;received.microseconds;sampleTimeStamp.seconds;sampleTimeStamp.microseconds;accelerationX;accelerationY;accelerationZ;
1584543043;362449;758;854529;1584543043;362449;-9.885658;0.2178724;-0.5889736;
1584543043;451820;758;944168;1584543043;451820;-9.859323;0.248997;-0.5482722;
1584543043;477938;758;970255;1584543043;477938;-9.856928;0.2154782;-0.5746084;
1584543043;566507;759;58465;1584543043;566507;-9.873688;0.2274492;-0.6200982;
1584543043;656344;759;150908;1584543043;656344;-9.871293;0.2226608;-0.5291185;
1584543043;684248;759;183068;1584543043;684248;-9.864111;0.2561796;-0.5530606;
1584543043;771729;759;263800;1584543043;771729;-9.876081;0.2226608;-0.5051765;
1584543043;865492;759;357627;1584543043;865492;-9.88087;0.2059013;-0.5770026;
1584543043;951657;759;443736;1584543043;951657;-9.746795;0.3064578;-0.4261679;
1584543043;979321;759;471182;1584543043;979321;-9.919177;0.3160346;-0.5770026;
1584543044;71900;759;563958;1584543044;71900;-10.36929;0.1268927;-0.4453215;
1584543044;186508;759;678654;1584543044;186508;-9.066842;-1.647211;-1.529895;
1584543044;276982;759;769128;1584543044;276982;-9.308656;-0.2202666;-0.7110779;
1584543044;302533;759;796083;1584543044;302533;-10.54885;-1.070208;-0.5147533;
1584543044;403401;759;896341;1584543044;403401;-10.26634;-1.029507;0.4381389;
1584543044;487352;759;988751;1584543044;487352;-10.56082;-1.410185;0.641646;
1584543044;577083;760;69114;1584543044;577083;-7.831434;2.284068;-1.692701;
1584543044;672412;760;164568;1584543044;672412;-13.77384;1.043872;0.56982;
1584543044;694853;760;203395;1584543044;694853;-10.94629;-4.479551;-3.684676;
1584543044;792021;760;284086;1584543044;792021;-10.62786;2.794033;-1.786074;
1584543044;892304;760;384367;1584543044;892304;-9.01417;2.829946;-1.630451;
1584543044;987568;760;479602;1584543044;987568;-12.25592;-1.788469;-0.2561796;
1584543045;82238;760;574161;1584543045;82238;-12.62463;1.16837;0.9720459;
1584543045;102170;760;605399;1584543045;102170;-4.683058;-0.7110779;3.61285;
1584543045;217172;760;712657;1584543045;217172;-8.06846;2.03986;1.932121;
1584543045;307013;760;810426;1584543045;307013;-10.17775;-0.4979939;-4.644751;
1584543045;402540;760;896210;1584543045;402540;-9.100361;1.343147;-7.115567;
1584543045;487938;760;980016;1584543045;487938;-6.955156;-3.938462;1.668759;
1584543045;582514;761;74468;1584543045;582514;-7.841011;-0.2466028;1.419762;
1584543045;608657;761;101224;1584543045;608657;-15.97651;-2.054225;-0.557849;
1584543045;698424;761;190346;1584543045;698424;-6.081272;1.103727;-0.05027824;
1584543045;787909;761;279970;1584543045;787909;-6.210559;0.6488286;-3.74932;
1584543045;817313;761;318225;1584543045;817313;-15.32528;-1.781286;-2.667141;
1584543045;903195;761;402833;1584543045;903195;0.4118027;1.805228;-0.2896984;
1584543045;993433;761;485684;1584543045;993433;-15.65329;-1.297657;-2.810793;
1584543046;22119;761;521023;1584543046;22119;-10.18254;-1.21386;0.4189853;
1584543046;108386;761;602083;1584543046;108386;-12.93108;-2.030283;0.9457096;
1584543046;203611;761;695679;1584543046;203611;-7.649474;3.684676;-2.906561;
1584543046;298470;761;790554;1584543046;298470;-12.18888;-3.213019;-1.78368;
1584543046;393548;761;885572;1584543046;393548;-18.54309;-1.077391;-4.211401;
1584543046;432466;761;925420;1584543046;432466;-9.624691;0.7757213;3.945644;
1584543046;520766;762;23505;1584543046;520766;-9.078813;7.398083;-1.103727;
1584543046;613779;762;105753;1584543046;613779;-6.947973;-0.1508347;-2.930503;
1584543046;703295;762;195411;1584543046;703295;-13.22796;-3.433285;1.599327;
1584543046;723701;762;216344;1584543046;723701;-11.01333;-1.410185;-0.4070143;
1584543046;839757;762;331976;1584543046;839757;-13.42668;-0.2537854;-0.3878607;
1584543046;924254;762;416551;1584543046;924254;-11.23599;-0.4692635;-8.207323;
1584543046;958623;762;451139;1584543046;958623;-16.41465;-5.987898;0.3399766;
1584543047;44244;762;536425;1584543047;44244;-1.127669;0.3495534;3.114856;
1584543047;69135;762;561921;1584543047;69135;-6.720524;-0.3256114;1.699883;
1584543047;164687;762;656618;1584543047;164687;-21.79681;-4.601655;-1.740585;
1584543047;188618;762;680603;1584543047;188618;-22.9149;-4.714183;-3.751714;
1584543047;214992;762;709502;1584543047;214992;-5.085284;-3.040636;0.308852;
1584543047;304571;762;796715;1584543047;304571;-11.29105;-1.996764;-1.074997;
1584543047;342902;762;835977;1584543047;342902;-8.846575;-4.649539;-0.8283938;
1584543047;424676;762;917024;1584543047;424676;-0.9696517;8.487445;6.533776;
1584543047;513994;763;5937;1584543047;513994;-9.126697;0.6991069;3.957615;
1584543047;555351;763;47215;1584543047;555351;-9.308656;5.228936;3.65834;
1584543047;649061;763;141217;1584543047;649061;-6.016629;3.756502;-1.493982;
1584543047;674791;763;166762;1584543047;674791;-13.19684;4.06296;-2.164358;
1584543047;700188;763;193067;1584543047;700188;-12.36605;-0.7230489;0.85473;
1584543047;732176;763;234911;1584543047;732176;-12.1003;1.142034;2.96881;
1584543047;829965;763;321856;1584543047;829965;-3.3447;2.224213;2.693477;
1584543047;926051;763;418055;1584543047;926051;-14.29099;3.653552;0.4381389;
1584543048;21547;763;513673;1584543048;21547;-9.73243;-3.921702;0.9864111;
1584543048;114819;763;606741;1584543048;114819;-13.63258;4.764462;-2.319981;
1584543048;136489;763;632907;1584543048;136489;-7.359776;-0.3854665;-3.074155;
1584543048;229906;763;721873;1584543048;229906;-13.36443;-1.25935;-6.818686;
1584543048;329975;763;821934;1584543048;329975;-6.584054;-2.612074;1.826776;
1584543048;434690;763;926592;1584543048;434690;-2.468422;1.936909;2.990358;
1584543048;463991;763;956112;1584543048;463991;-4.539406;5.176264;5.267244;
1584543048;489481;763;981608;1584543048;489481;-13.89834;-0.3471592;-4.766856;
1584543048;514443;764;6362;1584543048;514443;-15.89271;-3.881001;-2.394202;
1584543048;605422;764;97518;1584543048;605422;-10.44111;-2.5187;-2.123657;
1584543048;635754;764;128649;1584543048;635754;-13.55836;-2.633622;3.172317;
1584543048;727559;764;219641;1584543048;727559;-5.616797;3.574543;2.964022;
1584543048;758027;764;250352;1584543048;758027;-0.6919243;2.856282;4.589684;
1584543048;840198;764;332522;1584543048;840198;0.7086837;4.125209;-4.22816;
1584543048;864980;764;357202;1584543048;864980;-7.206547;2.475605;-1.041478;
1584543048;883546;764;375573;1584543048;883546;-9.423577;-1.371878;0.9433154;
1584543048;899877;764;391747;1584543048;899877;-5.770026;1.127669;-1.702277;
1584543048;915190;764;406958;1584543048;915190;-12.07156;-8.470685;0.6153098;
1584543049;14963;764;506637;1584543049;14963;-7.979874;-1.051054;-6.562507;
1584543049;34934;764;527515;1584543049;34934;-8.841786;3.450045;-5.714959;
1584543049;120535;764;612548;1584543049;120535;-13.36443;1.182736;-3.052607;
1584543049;141628;764;633885;1584543049;141628;-9.344569;2.212242;-3.701436;
1584543049;230917;764;722820;1584543049;230917;-7.723694;5.705382;-4.81474;
1584543049;250860;764;746468;1584543049;250860;-6.840234;5.755661;-3.026271;
1584543049;335646;764;827657;1584543049;335646;-20.98997;-8.834604;1.029507;
1584543049;363880;764;856815;1584543049;363880;-12.28225;-5.154716;-0.9217677;
1584543049;445844;764;937872;1584543049;445844;-2.238579;2.267309;2.640805;
1584543049;530480;765;22429;1584543049;530480;-8.082825;-3.579331;-3.232172;
1584543049;551474;765;44185;1584543049;551474;-4.850653;2.379837;-2.56419;
1584543049;630825;765;122708;1584543049;630825;-15.91905;0.9217677;-4.577713;
1584543049;650569;765;144468;1584543049;650569;-12.02847;-0.9864111;-4.826711;
1584543049;740873;765;232961;1584543049;740873;-1.513135;-1.070208;-5.020641;
1584543049;826094;765;318160;1584543049;826094;-9.722853;-4.582502;-6.021417;
1584543049;846572;765;338481;1584543049;846572;-12.57435;-0.7685387;-0.2442086;
1584543049;931062;765;423005;1584543049;931062;-19.13206;-5.513846;-7.491457;
1584543049;951623;765;443770;1584543049;951623;-14.41549;-5.274426;-3.215413;
1584543050;36105;765;528713;1584543050;36105;-7.936779;-1.513135;0.9768343;
1584543050;55719;765;549939;1584543050;55719;-5.858612;-2.422932;1.403002;
1584543050;146251;765;638181;1584543050;146251;-7.206547;2.875436;0.4022259;
1584543050;231160;765;723033;1584543050;231160;-17.65245;0.9672575;1.070208;
1584543050;250927;765;742972;1584543050;250927;-11.54484;-0.1604115;-4.771644;
1584543050;336270;765;828340;1584543050;336270;-9.334992;-1.04866;0.3806781;
1584543050;355533;765;848835;1584543050;355533;-11.32457;-1.647211;-2.116474;
1584543050;447345;765;939343;1584543050;447345;-8.793902;-1.884237;-0.6871359;
1584543050;471204;765;967097;1584543050;471204;-15.14811;-4.163517;4.750096;
1584543050;556554;766;48652;1584543050;556554;-5.552154;-0.1388637;0.01436521;
1584543050;641521;766;133517;1584543050;641521;-10.01734;-1.357512;-2.53546;
1584543050;662236;766;154675;1584543050;662236;-6.493075;-1.608904;-2.296039;
1584543050;746752;766;238703;1584543050;746752;-3.878607;4.201824;4.187459;
1584543050;770850;766;263409;1584543050;770850;-7.850587;-0.9193735;3.191471;
1584543050;851686;766;343874;1584543050;851686;-10.34056;1.058237;-1.070208;
1584543050;942164;766;434147;1584543050;942164;-8.310274;4.915296;-4.651934;
1584543050;962058;766;454968;1584543050;962058;-8.968679;6.574478;-0.3806781;
1584543051;77171;766;576012;1584543051;77171;-7.479486;-1.58975;-0.7637503;
1584543051;167046;766;659275;1584543051;167046;-10.31422;-1.84593;-1.836353;
1584543051;197112;766;689285;1584543051;197112;-8.51857;-2.073379;-0.2250549;
1584543051;292247;766;784410;1584543051;292247;-5.011064;2.229002;-6.641515;
1584543051;390302;766;882873;1584543051;390302;-11.46104;-0.8499416;5.023035;
1584543051;482504;766;974437;1584543051;482504;-2.336741;-1.513135;0.4572925;
1584543051;511865;767;12862;1584543051;511865;-10.13466;-5.83467;0.6584055;
1584543051;596893;767;89059;1584543051;596893;-3.074155;2.947262;-3.409343;
1584543051;693191;767;186099;1584543051;693191;-4.070143;4.728548;-8.212111;
1584543051;793926;767;285922;1584543051;793926;-2.025495;0.213084;-4.738125;
1584543051;832806;767;325229;1584543051;832806;-5.046977;0.9959879;-2.202666;
1584543051;922612;767;419388;1584543051;922612;-15.01404;-7.76679;0.9768343;
1584543051;948518;767;440911;1584543051;948518;-16.99883;-3.85227;1.28808;
1584543051;972728;767;465728;1584543051;972728;-1.541866;2.856282;2.389413;
1584543052;77799;767;569385;1584543052;77799;-6.945579;1.04866;3.603273;
1584543052;167519;767;659629;1584543052;167519;-11.05882;-3.145981;3.406949;
1584543052;195196;767;689138;1584543052;195196;-8.681376;-1.951274;-1.247379;
1584543052;282843;767;776997;1584543052;282843;-8.429984;-1.321599;1.130063;
1584543052;373200;767;865313;1584543052;373200;1.393425;1.762132;5.619191;
1584543052;462940;767;954876;1584543052;462940;-6.272809;-2.430115;2.602497;
1584543052;483685;767;975914;1584543052;483685;-5.674258;-1.28808;-4.046201;
1584543052;573354;768;65484;1584543052;573354;-8.432378;-0.5147533;0.3160346;
1584543052;604245;768;97243;1584543052;604245;-8.777143;3.572149;-0.5171475;
1584543052;682975;768;174983;1584543052;682975;-5.446809;1.644817;-1.958457;
1584543052;768149;768;260220;1584543052;768149;-11.8082;-4.311957;-0.9888053;
1584543052;788394;768;283237;1584543052;788394;-15.39472;-0.4429273;-0.8930372;
1584543052;883324;768;375256;1584543052;883324;-2.458845;11.42274;2.497152;
1584543052;973394;768;465416;1584543052;973394;-4.879383;0.1604115;3.313575;
1584543053;73940;768;565879;1584543053;73940;-8.396465;2.712631;0.6727707;
1584543053;97026;768;589103;1584543053;97026;-2.183512;4.994305;3.96001;
1584543053;188438;768;680466;1584543053;188438;-11.57596;6.409278;-3.318363;
1584543053;283681;768;775722;1584543053;283681;-19.05785;-2.815581;-6.830657;
1584543053;320898;768;813083;1584543053;320898;-9.883265;-3.964798;-3.296816;
1584543053;408525;768;902238;1584543053;408525;-5.90889;8.602366;5.190629;
1584543053;435951;768;928517;1584543053;435951;-4.556166;-0.1197101;0.9935937;
1584543053;534604;769;26927;1584543053;534604;-1.836353;4.589684;-5.171475;
1584543053;560308;769;52532;1584543053;560308;0.9672575;4.151546;1.790863;
1584543053;582952;769;74891;1584543053;582952;-7.862558;0.5889736;0.4644751;
1584543053;683670;769;175688;1584543053;683670;-4.96318;-2.238579;-3.581726;
1584543053;711581;769;206058;1584543053;711581;-9.933542;6.660669;3.907337;
1584543053;793891;769;285736;1584543053;793891;-25.58204;-11.15459;-1.113304;
1584543053;824955;769;335795;1584543053;824955;-16.4745;-5.568913;-0.3184288;
1584543053;919055;769;411234;1584543053;919055;-0.4070143;6.05733;2.63841;
1584543053;942635;769;437395;1584543053;942635;-3.241749;4.582502;6.370971;
1584543053;970542;769;462585;1584543053;970542;-7.110779;0.9217677;0.5985504;
1584543053;993585;769;491447;1584543053;993585;-9.26556;3.05979;-0.938527;
1584543054;88927;769;581213;1584543054;88927;-15.94538;-5.45878;-2.121263;
1584543054;179336;769;671683;1584543054;179336;-8.62152;-1.781286;-0.8212112;
1584543054;195515;769;687858;1584543054;195515;-5.238513;2.056619;0.9696517;
1584543054;279701;769;771757;1584543054;279701;-5.530606;5.671864;-2.226608;
1584543054;294428;769;786375;1584543054;294428;-11.48499;-4.481946;-0.9864111;
1584543054;324507;769;819123;1584543054;324507;-20.24776;-4.841076;-2.291251;
1584543054;399209;769;891141;1584543054;399209;-20.3555;-3.828328;-0.4237737;
1584543054;423237;769;915812;1584543054;423237;-15.47851;-4.580108;-0.7445967;
1584543054;514545;770;13385;1584543054;514545;-6.385336;8.171411;-0.01197101;
1584543054;599633;770;91679;1584543054;599633;-9.141062;3.473987;7.065289;
1584543054;628337;770;128945;1584543054;628337;-6.567295;-2.348712;-1.61848;
1584543054;723020;770;219892;1584543054;723020;-12.09072;4.812346;-4.757279;
1584543054;909024;770;401007;1584543054;909024;-3.076549;-0.6153098;0.296881;
1584543054;944380;770;437363;1584543054;944380;-15.72033;0.4812345;-2.576161;
1584543055;42121;770;534338;1584543055;42121;-7.19697;0.3615245;-0.04070143;
1584543055;68342;770;560529;1584543055;68342;-16.86476;-1.16837;-0.8690952;
1584543055;89641;770;581746;1584543055;89641;-9.706094;2.92332;0.8475474;
1584543055;169943;770;661882;1584543055;169943;-13.93904;-0.6248866;0.8954314;
1584543055;190324;770;682260;1584543055;190324;-2.27928;2.027889;-2.738967;
1584543055;212313;770;704765;1584543055;212313;-8.291121;6.026206;1.055843;
1584543055;341411;770;833514;1584543055;341411;-0.7972692;8.185776;3.627216;
1584543055;442308;770;934209;1584543055;442308;-16.43859;-2.08535;-1.074997;
1584543055;466967;770;959920;1584543055;466967;-9.153033;-0.6512228;-2.437297;
1584543055;488477;770;980617;1584543055;488477;-22.33551;-5.564125;-3.512294;
1584543055;534623;771;32766;1584543055;534623;-20.23819;-3.969586;-2.070984;
1584543055;629210;771;121931;1584543055;629210;-21.44726;-0.7110779;-1.623269;
1584543055;722113;771;220780;1584543055;722113;-6.890512;-1.154005;2.557007;
1584543055;819962;771;311975;1584543055;819962;-10.63504;1.086968;-1.740585;
1584543055;914791;771;406681;1584543055;914791;-4.795586;-0.1077391;2.291251;
1584543056;9317;771;501474;1584543056;9317;-7.010222;0.7134721;3.248932;
1584543056;90292;771;582244;1584543056;90292;-14.78659;1.819593;-1.702277;
1584543056;175811;771;667954;1584543056;175811;-4.683058;-0.05267244;4.967968;
1584543056;197573;771;689851;1584543056;197573;-12.18888;0.1053449;-2.078167;
1584543056;219302;771;712155;1584543056;219302;-10.72842;-0.4189853;0.4764461;
1584543056;320817;771;812826;1584543056;320817;-11.66694;-0.3998317;-1.11091;
1584543056;420880;771;912868;1584543056;420880;-12.83053;0.9361328;-1.953669;
1584543056;515525;772;7503;1584543056;515525;-7.563283;1.802834;0.07422026;
1584543056;543074;772;42365;1584543056;543074;-8.595184;3.0143;-0.5889736;
1584543056;630874;772;122756;1584543056;630874;-8.475473;1.886631;1.367089;
1584543056;721217;772;213221;1584543056;721217;-16.29972;3.971981;-0.8259996;
1584543056;816499;772;308492;1584543056;816499;-10.75954;-0.7805098;1.233014;
1584543056;840341;772;342838;1584543056;840341;-10.19451;-2.667141;-2.410961;
1584543056;931735;772;423769;1584543056;931735;-10.1155;-1.539472;-1.833959;
1584543056;965377;772;458407;1584543056;965377;-10.18972;0.1460463;-0.7661445;
1584543057;54091;772;546104;1584543057;54091;-17.05629;-4.60405;0.344765;
1584543057;136378;772;632505;1584543057;136378;-10.25437;4.714183;3.452439;
1584543057;226387;772;718277;1584543057;226387;-7.568071;2.296039;1.276109;
1584543057;316107;772;808116;1584543057;316107;-16.29494;-1.857901;-1.000776;
1584543057;335977;772;828106;1584543057;335977;-11.01093;2.413355;2.530671;
1584543057;426459;772;918328;1584543057;426459;-10.82897;-1.33357;-1.714248;
1584543057;458620;772;955883;1584543057;458620;-13.01967;-1.398214;-3.833117;
1584543057;541609;773;36709;1584543057;541609;-3.56736;4.649539;-1.031901;
1584543057;636785;773;128788;1584543057;636785;-2.645593;3.177106;0.6440402;
1584543057;726531;773;218407;1584543057;726531;-1.644817;7.343017;2.631228;
1584543057;759055;773;252230;1584543057;759055;-8.626308;1.412579;0.8283938;
1584543057;842020;773;334237;1584543057;842020;-10.45787;-1.711854;-7.323863;
1584543057;932024;773;424008;1584543057;932024;-11.79863;3.473987;-0.3351882;
1584543058;27426;773;519300;1584543058;27426;-5.8634;3.840299;2.051831;
1584543058;51431;773;552363;1584543058;51431;-7.860164;1.853112;-2.032677;
1584543058;146834;773;642382;1584543058;146834;-4.757279;2.157176;1.39582;
1584543058;237212;773;729242;1584543058;237212;-9.200917;-1.09415;-0.7709329;
1584543058;327305;773;819204;1584543058;327305;-10.97023;-1.122881;-4.170699;
1584543058;346801;773;841496;1584543058;346801;-11.46583;-1.043872;2.978387;
1584543058;437100;773;929121;1584543058;437100;-11.99495;2.743755;-2.293645;
1584543058;527637;774;19512;1584543058;527637;-12.48337;0.5291185;-1.735796;
1584543058;547718;774;40132;1584543058;547718;-16.94377;-3.799598;2.365471;
1584543058;637507;774;129502;1584543058;637507;-7.642292;7.67581;-3.114856;
1584543058;663905;774;162849;1584543058;663905;-4.024653;-0.7924808;3.557784;
1584543058;747672;774;239741;1584543058;747672;-7.390901;-0.6200982;4.955997;
1584543058;837534;774;329525;1584543058;837534;-13.33331;-4.517859;2.090138;
1584543058;874354;774;366096;1584543058;874354;-10.1179;1.972822;-1.175553;
1584543058;978167;774;469629;1584543058;978167;-6.53617;2.30801;0.8882488;
1584543059;9632;774;502180;1584543059;9632;-6.208165;-0.8164228;-3.275268;
1584543059;83169;774;575379;1584543059;83169;-10.41478;0.4740519;-3.122039;
1584543059;181399;774;673525;1584543059;181399;-15.58865;-1.154005;-2.669535;
1584543059;271005;774;770286;1584543059;271005;-7.103596;-3.440468;4.462792;
1584543059;300735;774;794037;1584543059;300735;-8.50181;1.089362;-2.166753;
1584543059;387538;774;885077;1584543059;387538;-17.38669;-4.335899;-1.692701;
1584543059;419429;774;911723;1584543059;419429;-10.94868;1.637634;0.6105214;
1584543059;515078;775;7730;1584543059;515078;-3.845088;4.939238;4.596867;
1584543059;537571;775;29709;1584543059;537571;-3.950433;1.539472;-0.890643;
1584543059;564696;775;60860;1584543059;564696;-4.984728;4.857835;1.68073;
1584543059;653326;775;145431;1584543059;653326;-12.64617;-5.434838;-0.6967127;
1584543059;743345;775;235273;1584543059;743345;-6.713341;1.237802;0.01915361;
1584543059;762891;775;258042;1584543059;762891;-5.272032;1.21386;0.06224924;
1584543059;853641;775;345669;1584543059;853641;-16.48647;-3.318363;-3.521871;
1584543059;984033;775;477181;1584543059;984033;-16.75941;-8.078036;1.728614;
1584543060;82089;775;576642;1584543060;82089;-5.473145;3.213019;-1.584962;
1584543060;158622;775;650597;1584543060;158622;-7.694964;2.111686;-4.434062;
1584543060;248655;775;740765;1584543060;248655;-13.27106;2.973598;-2.83234;
1584543060;269541;775;774824;1584543060;269541;-9.691729;-2.954445;2.755726;
1584543060;398144;775;892729;1584543060;398144;-5.106832;4.43885;-0.3040636;
1584543060;493159;775;985280;1584543060;493159;-21.88779;-6.143521;-4.671087;
1584543060;593198;776;85177;1584543060;593198;-11.62864;1.968034;-3.272874;
1584543060;695822;776;188063;1584543060;695822;-5.686229;5.166687;-1.249773;
1584543060;788912;776;285674;1584543060;788912;-19.326;-1.47004;-3.962404;
1584543060;969012;776;461062;1584543060;969012;-14.77701;-3.263297;-5.408502;
1584543061;59308;776;551235;1584543061;59308;-1.802834;3.701436;5.667075;
1584543061;149265;776;641393;1584543061;149265;-14.76025;-6.931214;2.377442;
1584543061;170002;776;661921;1584543061;170002;-8.899247;3.617639;-0.1197101;
1584543061;259539;776;751587;1584543061;259539;-6.282385;2.059013;-2.722207;
1584543061;279387;776;771919;1584543061;279387;-5.027823;0.8451532;-4.266468;
1584543061;374121;776;866085;1584543061;374121;-9.615114;5.135562;-1.302446;
1584543061;474276;776;966170;1584543061;474276;-8.355763;-2.60968;-0.2681506;
1584543061;559553;777;51578;1584543061;559553;-10.12268;-5.154716;-1.623269;
1584543061;579660;777;71757;1584543061;579660;-12.62941;-0.4860229;-1.084573;
1584543061;674379;777;166308;1584543061;674379;-14.52562;0.009576807;-3.904943;
1584543061;774813;777;266762;1584543061;774813;-6.62715;5.616797;1.374272;
1584543061;808305;777;301027;1584543061;808305;-8.018182;-1.541866;-0.2298434;
1584543061;832421;777;325465;1584543061;832421;-5.506664;3.248932;0.3663129;
1584543061;857917;777;349837;1584543061;857917;-15.38035;-0.04548983;-5.68144;
1584543061;879897;777;372030;1584543061;879897;-3.275268;6.976704;-2.782062;
1584543061;984207;777;476255;1584543061;984207;-17.84398;-7.055712;-3.05979;
1584543062;74631;777;566571;1584543062;74631;-8.494628;0.05746084;-0.1149217;
1584543062;159765;777;651808;1584543062;159765;-12.70363;-1.697489;-1.927332;
1584543062;180295;777;672968;1584543062;180295;-19.77132;-1.199495;2.794033;
1584543062;274679;777;766584;1584543062;274679;1.929726;9.959879;1.987187;
1584543062;375719;777;867696;1584543062;375719;-10.79785;0.7709329;-0.03112462;
1584543062;480278;777;972348;1584543062;480278;-5.216965;-1.558625;-1.996764;
1584543062;575754;778;67836;1584543062;575754;-15.38514;-6.002264;-3.79481;
1584543062;618489;778;110331;1584543062;618489;-14.31254;-1.953669;-3.078943;
1584543062;720788;778;213670;1584543062;720788;-15.68681;-0.03591302;-8.851363;
1584543062;824050;778;316030;1584543062;824050;-13.56555;0.1077391;1.704672;
1584543062;920524;778;412602;1584543062;920524;-4.812346;5.035006;-1.120486;
1584543062;945844;778;438011;1584543062;945844;-7.354988;1.821988;0.6320692;
1584543062;966847;778;458873;1584543062;966847;-4.371812;-0.28491;1.034295;
1584543062;991106;778;483037;1584543062;991106;-4.446033;-1.70946;-3.49314;
1584543063;80742;778;573105;1584543063;80742;-17.59259;0.3998317;-3.107674;
1584543063;175917;778;668177;1584543063;175917;-13.06037;3.483563;0.8619126;
1584543063;200863;778;692823;1584543063;200863;-8.765172;-2.858677;3.064578;
1584543063;290856;778;782791;1584543063;290856;-14.73871;-1.778892;0.6655881;
1584543063;391082;778;886409;1584543063;391082;6.423643;7.682993;-3.696647;
1584543063;481249;778;973302;1584543063;481249;-8.573636;0.5315128;-2.509123;
1584543063;506429;779;1412;1584543063;506429;-5.525817;-1.347936;-5.932832;
1584543063;621911;779;114221;1584543063;621911;-23.03701;-5.918467;1.450886;
1584543063;652864;779;145095;1584543063;652864;-10.12029;-0.8762778;-4.031836;
1584543063;674607;779;166524;1584543063;674607;-10.85052;0.1508347;-1.060631;
1584543063;695075;779;187872;1584543063;695075;-5.571307;1.460463;1.199495;
1584543063;791859;779;284460;1584543063;791859;-4.699818;1.156399;0.6392518;
1584543063;915810;779;408695;1584543063;915810;-3.303998;1.869871;3.105279;
1584543063;996485;779;488528;1584543063;996485;-15.20557;4.817134;0.8403648;
1584543064;91867;779;583829;1584543064;91867;-11.36528;-2.276886;0.002394202;
1584543064;186566;779;679419;1584543064;186566;-8.221688;5.341464;-2.161964;
1584543064;208403;779;700719;1584543064;208403;-6.347029;4.659116;-2.652776;
1584543064;296780;779;788801;1584543064;296780;-5.489904;2.477999;-3.653552;
1584543064;313857;779;809022;1584543064;313857;-3.670311;1.118092;-2.219425;
1584543064;354367;779;846148;1584543064;354367;-9.991004;-2.72939;-1.690306;
1584543064;441469;779;933736;1584543064;441469;-12.90475;-1.448492;1.924938;
1584543064;519947;780;12078;1584543064;519947;-4.845864;4.489128;0.1675941;
1584543064;614681;780;109441;1584543064;614681;-11.00854;-2.975993;-3.236961;
1584543064;639212;780;139787;1584543064;639212;-12.09072;-0.3711013;-2.545036;
1584543064;727045;780;218953;1584543064;727045;-3.799598;1.228225;1.240196;
1584543064;759677;780;251788;1584543064;759677;-5.035006;0.1077391;-3.682282;
1584543064;776789;780;269014;1584543064;776789;-6.801927;3.229778;8.106767;
1584543064;792809;780;285098;1584543064;792809;-6.05733;-0.617704;-2.375048;
1584543064;812723;780;304990;1584543064;812723;1.946486;2.365471;-1.194707;
1584543064;896328;780;388392;1584543064;896328;-10.58237;1.687912;-5.837064;
1584543064;915861;780;407989;1584543064;915861;-8.178593;-4.462792;-3.25372;
1584543064;935278;780;429813;1584543064;935278;-16.1034;-3.722984;-1.735796;
1584543064;956844;780;461969;1584543064;956844;-4.297592;-0.01915361;-2.748544;
1584543065;47569;780;539902;1584543065;47569;-4.498705;4.788404;0.332794;
1584543065;157910;780;652596;1584543065;157910;-7.807492;-0.3734955;-5.006276;
1584543065;179982;780;672234;1584543065;179982;-8.848969;2.851494;0.3711013;
1584543065;197546;780;690998;1584543065;197546;-12.04523;0.8595184;0.4932055;
1584543065;287422;780;779344;1584543065;287422;-6.512228;-1.898602;-4.510676;
1584543065;304235;780;796512;1584543065;304235;-14.16649;-4.589684;-7.115567;
1584543065;387751;780;879798;1584543065;387751;-7.429208;-2.11408;-1.968034;
1584543065;407117;780;902426;1584543065;407117;-5.880159;1.091756;4.479551;
1584543065;490732;780;982673;1584543065;490732;-12.90954;-5.966351;-0.3878607;
1584543065;507068;780;998991;1584543065;507068;-13.6685;-6.34224;3.201048;
1584543065;532916;781;25223;1584543065;532916;-17.8368;-6.23929;-2.784456;
1584543065;554997;781;46845;1584543065;554997;-7.630321;7.704541;3.107674;
1584543065;576354;781;79157;1584543065;576354;-13.01009;-3.524265;-2.516306;
1584543065;604560;781;96798;1584543065;604560;-4.007894;-2.274492;-3.720589;
1584543065;632655;781;124774;1584543065;632655;-15.20079;0.5889736;0.7374141;
1584543065;650771;781;146136;1584543065;650771;-14.64294;-2.104503;-4.005499;
1584543065;674321;781;166475;1584543065;674321;-12.42112;-2.334347;-3.488352;
1584543065;758170;781;250032;1584543065;758170;-18.67717;-3.157952;-5.865794;
1584543065;777386;781;269534;1584543065;777386;-14.49689;-2.360683;-3.368642;
1584543065;804623;781;296891;1584543065;804623;-15.96214;-2.557007;-3.184288;
1584543065;823918;781;317837;1584543065;823918;-12.69166;0.6009446;0.5195417;
1584543065;846160;781;341136;1584543065;846160;-17.02038;-10.93911;0.7996634;
1584543065;877561;781;369596;1584543065;877561;-0.6967127;10.62786;2.355894;
1584543065;959340;781;451016;1584543065;959340;-11.44668;-1.527501;2.439692;
1584543065;979754;781;473021;1584543065;979754;-15.30853;0.1292869;4.129998;
1584543066;6621;781;506658;1584543066;6621;-6.959944;-1.386243;-2.717419;
1584543066;33510;781;525567;1584543066;33510;-10.44351;0.1316811;3.100491;
1584543066;52502;781;544416;1584543066;52502;-11.76271;-0.6560113;2.37026;
1584543066;75544;781;568629;1584543066;75544;-7.254431;4.666299;-2.27928;
1584543066;95882;781;596211;1584543066;95882;-13.66131;-4.06296;-0.2466028;
1584543066;123715;781;615919;1584543066;123715;-6.418855;2.667141;-2.612074;
1584543066;143708;781;635966;1584543066;143708;-16.80729;-2.020706;-5.094861;
1584543066;166515;781;660964;1584543066;166515;-5.564125;0.7852982;-0.1795651;
1584543066;185503;781;677931;1584543066;185503;-15.08587;1.465251;5.475539;
1584543066;271481;781;763230;1584543066;271481;-12.29901;0.4309563;0.6153098;
1584543066;287103;781;779263;1584543066;287103;-12.71082;0.332794;-3.39019;
1584543066;371498;781;864015;1584543066;371498;-7.795521;0.1388637;-2.372654;
1584543066;390054;781;882121;1584543066;390054;-7.161057;-0.6655881;-8.037335;
1584543066;478514;781;970439;1584543066;478514;-5.93762;-0.5099649;-0.2082955;
1584543066;494963;781;987011;1584543066;494963;-4.654328;0.2154782;-1.407791;
1584543066;525169;782;17378;1584543066;525169;-6.488286;-1.335965;-2.619257;
1584543066;543333;782;36849;1584543066;543333;-16.67322;-0.9313444;-6.040571;
1584543066;562628;782;54357;1584543066;562628;-8.520964;-5.600038;-1.180341;
1584543066;578666;782;70626;1584543066;578666;-11.57357;-1.505953;0.7517793;
1584543066;593547;782;85667;1584543066;593547;-12.49534;-1.525106;-1.431733;
1584543066;683980;782;176290;1584543066;683980;-9.119514;0.8403648;-0.866701;
1584543066;833636;782;325621;1584543066;833636;-19.67794;-6.105214;-0.2106898;
1584543066;860082;782;352639;1584543066;860082;-16.40268;-3.409343;-0.4141969;
1584543066;971847;782;463779;1584543066;971847;-9.263166;5.00867;1.944092;
1584543067;53797;782;545733;1584543067;53797;-13.77624;-0.03351882;-3.715801;
1584543067;85471;782;577702;1584543067;85471;-10.09635;0.3758897;1.841141;
1584543067;173084;782;665808;1584543067;173084;-0.007182605;4.618415;-8.073248;
1584543067;203682;782;697801;1584543067;203682;-5.473145;3.239355;-3.093308;
1584543067;289134;782;781498;1584543067;289134;-12.2631;1.99437;-2.796427;
1584543067;316544;782;808728;1584543067;316544;-10.59913;0.8714894;-1.328782;
1584543067;339513;782;831390;1584543067;339513;-8.523358;-3.806781;-0.7541735;
1584543067;364470;782;856926;1584543067;364470;-9.284714;-1.877054;-3.873818;
1584543067;451983;782;944729;1584543067;451983;-4.465186;4.201824;-0.1436521;
1584543067;482819;782;975404;1584543067;482819;-4.496311;9.92636;-1.244985;
1584543067;564067;783;56143;1584543067;564067;-10.34774;-3.677494;-2.63841;
1584543067;649123;783;141427;1584543067;649123;-13.5847;3.031059;-1.90339;
1584543067;684957;783;177978;1584543067;684957;-12.38042;2.947262;2.731784;
1584543067;769245;783;261571;1584543067;769245;-7.208941;3.13401;-0.9457096;
1584543067;869550;783;361994;1584543067;869550;-10.18733;-2.073379;-0.3734955;
1584543067;974736;783;469723;1584543067;974736;-9.143456;0.4740519;3.028665;
1584543068;7456;783;499392;1584543068;7456;-13.75469;0.878672;-1.438915;
1584543068;99929;783;600172;1584543068;99929;-3.938462;3.569755;0.6799533;
1584543068;198108;783;696832;1584543068;198108;-9.428366;-3.129222;-6.658275;
1584543068;296505;783;789175;1584543068;296505;-4.639963;3.021482;0.3998317;
1584543068;379728;783;871771;1584543068;379728;-10.64462;-7.7213;-2.322376;
1584543068;480213;783;972344;1584543068;480213;-6.777985;2.880225;-1.826776;
1584543068;577597;784;69763;1584543068;577597;-6.299145;2.626439;-2.420538;
1584543068;677603;784;169746;1584543068;677603;-14.02044;-3.454833;-2.877831;
1584543068;780107;784;272288;1584543068;780107;-10.50336;1.80044;3.021482;
1584543068;864972;784;357036;1584543068;864972;-9.751583;4.240131;-2.911349;
1584543068;969820;784;461722;1584543068;969820;-11.40598;1.007959;-5.152322;
1584543069;60987;784;553946;1584543069;60987;-12.39957;-0.08858546;-5.145139;
1584543069;88337;784;586507;1584543069;88337;-7.639897;0.7637503;-1.572991;
1584543069;180415;784;675751;1584543069;180415;-10.49139;-6.981492;-1.42455;
1584543069;280408;784;776513;1584543069;280408;-13.26867;-3.825934;-4.946421;
1584543069;375602;784;867648;1584543069;375602;-12.85926;-0.5650316;-0.3591303;
1584543069;475101;784;967020;1584543069;475101;-10.14184;4.31914;-3.071761;
1584543069;503042;785;6112;1584543069;503042;-5.714959;1.99437;0.4453215;
1584543069;610996;785;106541;1584543069;610996;-13.76187;1.702277;-3.191471;
1584543069;695490;785;199255;1584543069;695490;-8.339005;-5.760449;1.872266;
1584543069;791935;785;284776;1584543069;791935;-5.183446;6.691793;-3.445256;
1584543069;881611;785;392589;1584543069;881611;-9.378088;-5.813122;4.683058;
1584543069;985966;785;478140;1584543069;985966;-14.48731;-10.40759;-4.086902;
1584543070;80868;785;572927;1584543070;80868;-11.24317;4.22816;-1.790863;
1584543070;175946;785;668025;1584543070;175946;-11.66216;-3.203442;-1.936909;
1584543070;214419;785;707028;1584543070;214419;-15.42584;1.156399;-4.472369;
1584543070;309569;785;805959;1584543070;309569;-13.92947;-1.347936;4.841076;
1584543070;405060;785;897987;1584543070;405060;-12.81137;-3.782839;0.9265561;
1584543070;502307;785;997603;1584543070;502307;-9.964667;2.719813;-2.209848;
1584543070;613207;786;107189;1584543070;613207;-6.143521;-1.165976;1.735796;
1584543070;701380;786;193520;1584543070;701380;-9.138668;-4.46758;5.616797;
1584543070;791474;786;283389;1584543070;791474;-9.902418;3.49314;0.248997;
1584543070;906391;786;398539;1584543070;906391;-13.91749;-0.2537854;0.8140286;
1584543070;991672;786;483749;1584543070;991672;-15.3205;1.319205;0.6607997;
1584543071;23395;786;524050;1584543071;23395;-12.62463;-2.549825;1.027112;
1584543071;115804;786;607869;1584543071;115804;-7.304709;-4.970363;3.593697;
1584543071;216437;786;708439;1584543071;216437;-7.352593;1.292869;2.552219;
1584543071;301969;786;806366;1584543071;301969;-9.198523;3.61285;3.074155;
1584543071;396910;786;888994;1584543071;396910;-9.667787;4.922479;-1.237802;
1584543071;510382;787;3286;1584543071;510382;-12.02129;7.467515;7.240066;
1584543071;612127;787;104492;1584543071;612127;-13.6685;0.1364695;-3.122039;
1584543071;712933;787;205205;1584543071;712933;-17.83441;-0.8714894;-4.577713;
1584543071;807108;787;312438;1584543071;807108;-10.01255;1.553837;1.314417;
1584543071;907299;787;399577;1584543071;907299;-11.12346;1.877054;5.544971;
1584543071;933967;787;432976;1584543071;933967;-7.656657;-0.4955997;0.6153098;
1584543072;19572;787;511939;1584543072;19572;-12.0165;1.034295;0.4548983;
1584543072;55627;787;547703;1584543072;55627;-2.741361;3.670311;1.647211;
1584543072;133612;787;625709;1584543072;133612;-6.861782;-2.111686;2.142811;
1584543072;252233;787;744895;1584543072;252233;-8.611943;-0.5051765;-6.825869;
1584543072;337640;787;829753;1584543072;337640;-12.89517;-0.5147533;4.771644;
1584543072;427795;787;919881;1584543072;427795;4.829105;7.716512;-4.448427;
1584543072;513416;788;5587;1584543072;513416;-15.38993;-2.3535;-0.2178724;
1584543072;539548;788;35045;1584543072;539548;-11.31739;-2.750938;0.9289503;
1584543072;628919;788;121116;1584543072;628919;-14.98531;-7.311892;-1.472434;
1584543072;717640;788;209691;1584543072;717640;-5.78918;-1.568202;2.554613;
1584543072;747016;788;249158;1584543072;747016;-18.69872;-2.537854;-4.565742;
1584543072;838038;788;329967;1584543072;838038;-13.42908;5.477933;4.539406;
1584543072;936338;788;428526;1584543072;936338;-11.08515;-1.474828;-1.56102;
1584543073;22751;788;515131;1584543073;22751;-6.799533;3.040636;3.361459;
1584543073;117791;788;609906;1584543073;117791;-12.12903;2.346318;-0.2250549;
1584543073;218174;788;710265;1584543073;218174;-7.750031;4.982334;-5.370194;
1584543073;246937;788;741720;1584543073;246937;-13.39556;-2.243367;4.788404;
1584543073;339967;788;832201;1584543073;339967;-7.841011;2.343923;3.790021;
1584543073;437865;788;930610;1584543073;437865;-1.80044;5.269638;4.31914;
1584543073;528420;789;20418;1584543073;528420;-14.91827;-5.418078;-6.165069;
1584543073;560061;789;57112;1584543073;560061;-14.43464;-5.535394;-2.15957;
1584543073;645299;789;137549;1584543073;645299;-17.18079;-8.65025;-4.635174;
1584543073;729251;789;221314;1584543073;729251;-1.240196;5.2026;3.481169;
1584543073;761138;789;257356;1584543073;761138;6.390124;9.801862;-0.9361328;
1584543073;848263;789;341091;1584543073;848263;-14.51126;-1.644817;-1.098939;
1584543073;950771;789;442825;1584543073;950771;-13.03882;2.530671;-1.45328;
1584543074;50101;789;542113;1584543074;50101;-14.30775;6.100426;-0.1747767;
1584543074;138930;789;638350;1584543074;138930;-10.96544;3.04303;-1.793257;
1584543074;233873;789;725892;1584543074;233873;-6.327875;4.850653;-1.692701;
1584543074;328860;789;820919;1584543074;328860;-2.221819;3.74932;-0.02633622;
1584543074;358646;789;857348;1584543074;358646;-1.731008;8.398859;-0.9744401;
1584543074;451985;789;944600;1584543074;451985;-6.526594;0.4141969;4.690241;
1584543074;539715;790;32016;1584543074;539715;-10.51773;-1.261744;-3.404555;
1584543074;634654;790;126704;1584543074;634654;-4.771644;4.5418;1.592144;
1584543074;682432;790;174246;1584543074;682432;1.843535;2.209848;6.143521;
1584543074;759720;790;251885;1584543074;759720;-7.285556;2.626439;-3.909731;
1584543074;849055;790;341367;1584543074;849055;-5.992687;3.263297;7.103596;
1584543074;968603;790;463009;1584543074;968603;-12.41394;0.605733;-1.266533;
1584543075;62886;790;558983;1584543075;62886;-12.19367;-3.313575;0.4836287;
1584543075;149923;790;641768;1584543075;149923;-11.71004;-1.764527;0.7182605;
1584543075;244623;790;736869;1584543075;244623;-3.62961;3.260903;-2.545036;
1584543075;279360;790;776529;1584543075;279360;-10.49379;1.39582;-2.667141;
1584543075;370865;790;862593;1584543075;370865;-20.04426;-0.8116344;-4.247314;
1584543075;455135;790;947763;1584543075;455135;-13.15853;1.343147;2.025495;
1584543075;549781;791;41694;1584543075;549781;-7.161057;0.6009446;2.559402;
1584543075;583569;791;80170;1584543075;583569;-8.63828;-0.6967127;-0.4094085;
1584543075;679884;791;175625;1584543075;679884;-8.863335;0.9361328;-0.332794;
1584543075;779847;791;274609;1584543075;779847;-4.764462;1.429338;2.693477;
1584543075;875136;791;367045;1584543075;875136;-8.825027;1.505953;3.277662;
1584543075;980580;791;472622;1584543075;980580;-7.101202;-1.130063;0.3950433;
1584543076;12311;791;513744;1584543076;12311;-2.116474;-1.367089;1.838747;
1584543076;102841;791;596780;1584543076;102841;-20.90138;-3.110068;-5.188235;
1584543076;125966;791;619152;1584543076;125966;-22.45761;-7.606379;-4.345476;
1584543076;147715;791;639967;1584543076;147715;-5.839458;1.972822;-0.7350199;
1584543076;186169;791;677969;1584543076;186169;-7.599196;1.520318;4.979939;
1584543076;279738;791;771663;1584543076;279738;-8.477868;4.165911;-1.807622;
1584543076;360903;791;852954;1584543076;360903;-6.991069;0.5889736;0.7038953;
1584543076;392280;791;892804;1584543076;392280;-3.483563;2.147599;4.280833;
1584543076;490626;791;986114;1584543076;490626;1.082179;3.251326;-0.8619126;
1584543076;585788;792;77775;1584543076;585788;-6.375759;2.643199;-5.968745;
1584543076;622674;792;116068;1584543076;622674;-10.30225;1.285686;-2.645593;
1584543076;700885;792;198210;1584543076;700885;-21.3898;-7.302315;-0.7302315;
1584543076;791050;792;283008;1584543076;791050;-5.102044;6.67264;-0.1364695;
1584543076;892537;792;408611;1584543076;892537;-4.683058;-2.11408;-0.8619126;
1584543076;990899;792;482820;1584543076;990899;-4.611232;0.4285621;-6.931214;
1584543077;21338;792;513518;1584543077;21338;-6.390124;-0.7469909;0.1939303;
1584543077;100778;792;608846;1584543077;100778;-7.659051;5.559336;-1.879448;
1584543077;196281;792;688406;1584543077;196281;-14.04439;4.113238;0.2394202;
1584543077;295922;792;788099;1584543077;295922;-12.38999;-7.541735;2.195483;
1584543077;394083;792;886062;1584543077;394083;-3.77805;-1.58975;0.5195417;
1584543077;498817;792;991638;1584543077;498817;-5.511452;1.817199;-3.655946;
1584543077;597097;793;89293;1584543077;597097;-10.69969;5.08289;2.75812;
1584543077;699013;793;190979;1584543077;699013;-15.87116;0.8499416;-1.575385;
1584543077;799966;793;293215;1584543077;799966;-12.52168;-5.044583;-3.265691;
1584543077;908258;793;407021;1584543077;908258;-16.30212;5.166687;-1.972822;
1584543077;991581;793;489938;1584543077;991581;-6.17704;5.849035;5.482722;
1584543078;92482;793;585010;1584543078;92482;-9.744401;2.748544;-4.96318;
1584543078;189081;793;681324;1584543078;189081;-11.61667;1.307234;-2.992752;
1584543078;290093;793;782868;1584543078;290093;-5.877765;0.1268927;-4.556166;
1584543078;392573;793;885053;1584543078;392573;-10.12268;1.860295;0.01436521;
1584543078;500216;793;993779;1584543078;500216;-5.039794;-1.280898;0.7852982;
1584543078;592715;794;84735;1584543078;592715;-3.734955;-0.5315128;2.999935;
1584543078;692269;794;185788;1584543078;692269;-7.405266;6.91206;1.285686;
1584543078;792657;794;284599;1584543078;792657;-16.74265;-1.61848;-7.297527;
1584543078;912162;794;404235;1584543078;912162;-17.72428;-1.151611;-7.809886;
1584543078;941535;794;434593;1584543078;941535;-8.576031;-0.545878;-6.440403;
1584543078;963164;794;456007;1584543078;963164;-10.49379;-4.247314;2.959233;
1584543078;985071;794;477620;1584543078;985071;-1.403002;5.511452;-1.61848;
1584543079;78053;794;569965;1584543079;78053;-15.77539;-4.388572;2.959233;
1584543079;102690;794;598917;1584543079;102690;-11.67652;-0.3663129;-0.4932055;
1584543079;257869;794;749767;1584543079;257869;-9.885658;2.65517;-0.533907;
1584543079;281036;794;773150;1584543079;281036;-0.213084;2.583344;3.624821;
1584543079;314593;794;806937;1584543079;314593;-2.274492;4.683058;-0.641646;
1584543079;410415;794;902958;1584543079;410415;-10.45548;-1.295263;3.682282;
1584543079;504670;794;997195;1584543079;504670;-12.70124;-4.84347;-2.640805;
1584543079;538320;795;31638;1584543079;538320;-10.41957;-0.9720459;-3.189077;
1584543079;622550;795;114436;1584543079;622550;-12.58392;-2.693477;-2.516306;
1584543079;652635;795;145410;1584543079;652635;-7.817069;2.25055;-0.08140285;
1584543079;675847;795;168055;1584543079;675847;-12.46182;-7.283162;-4.807557;
1584543079;698800;795;190506;1584543079;698800;-8.408436;0.8164228;-2.243367;
1584543079;807958;795;300355;1584543079;807958;-10.84095;7.319075;-6.47871;
1584543079;908311;795;400614;1584543079;908311;-6.263232;4.747702;-3.854665;
1584543079;932663;795;434336;1584543079;932663;-8.173804;4.06296;-3.73256;
1584543080;21897;795;513808;1584543080;21897;-13.29261;-2.3535;0.6105214;
1584543080;120373;795;613102;1584543080;120373;-9.854534;1.790863;-0.3112462;
1584543080;148438;795;641115;1584543080;148438;-6.871359;1.525106;2.152387;
1584543080;222872;795;714749;1584543080;222872;-12.3062;2.056619;-2.772485;
1584543080;253930;795;746244;1584543080;253930;-8.135497;2.396596;1.249773;
1584543080;328958;795;821221;1584543080;328958;-14.9901;0.9528922;0.2011129;
1584543080;358464;795;850401;1584543080;358464;-12.37323;-1.924938;-2.906561;
1584543080;379197;795;871112;1584543080;379197;-7.563283;0.2346318;1.927332;
1584543080;458913;795;950836;1584543080;458913;-7.61835;9.76116;-3.3447;
1584543080;478595;795;970488;1584543080;478595;-5.877765;5.102044;-3.545813;
1584543080;506715;795;998630;1584543080;506715;-9.524135;4.422091;-5.176264;
1584543080;593443;796;85489;1584543080;593443;-5.149928;-0.1029507;2.25055;
1584543080;684583;796;176739;1584543080;684583;-5.23133;-0.3351882;-2.501941;
1584543080;715429;796;210161;1584543080;715429;-8.882488;3.167529;-1.414973;
1584543080;813354;796;305334;1584543080;813354;-11.05882;-2.202666;-1.699883;
1584543080;839783;796;331984;1584543080;839783;-12.84729;-2.908955;-4.103662;
1584543080;918652;796;410520;1584543080;918652;-4.812346;3.691859;0.2418144;
1584543080;954694;796;446498;1584543080;954694;-10.37408;7.00304;-5.013458;
1584543081;38595;796;530538;1584543081;38595;-4.996699;4.455609;3.315969;
1584543081;68135;796;560925;1584543081;68135;-13.08192;0.8762778;-1.932121;
1584543081;92555;796;584722;1584543081;92555;-10.00537;-0.5985504;-3.770868;
1584543081;180282;796;672479;1584543081;180282;-8.626308;0.4812345;-1.714248;
1584543081;201635;796;703591;1584543081;201635;-14.58069;-0.8690952;0.4501099;
1584543081;294517;796;786991;1584543081;294517;-6.390124;1.975216;5.573701;
1584543081;379463;796;871280;1584543081;379463;-15.6485;-2.15957;1.273715;
1584543081;398770;796;891953;1584543081;398770;-14.69322;-5.65271;-0.6607997;
1584543081;498937;797;3773;1584543081;498937;-9.952696;1.508347;-4.156334;
1584543081;589354;797;81406;1584543081;589354;-9.931149;4.697423;-2.497152;
1584543081;622080;797;114079;1584543081;622080;-11.94228;-1.393425;-0.806846;
1584543081;714130;797;206017;1584543081;714130;-8.808268;2.456451;6.318298;
1584543081;743238;797;235255;1584543081;743238;-10.96066;2.116474;3.801992;
1584543081;829158;797;320796;1584543081;829158;-10.18972;0.7350199;0.3782839;
1584543081;864361;797;356406;1584543081;864361;-10.75954;2.099715;-3.948039;
1584543081;941973;797;433982;1584543081;941973;-15.86637;1.113304;-3.782839;
1584543081;971379;797;464259;1584543081;971379;-13.91031;-1.558625;-0.4620809;
1584543081;995757;797;487978;1584543081;995757;-15.76103;-1.312023;-1.235408;
1584543082;79960;797;572012;1584543082;79960;-4.455609;-2.516306;-2.075773;
1584543082;113879;797;605613;1584543082;113879;-9.160215;-4.659116;0.02873042;
1584543082;189846;797;681782;1584543082;189846;-16.13931;-5.437232;3.112462;
1584543082;220933;797;713741;1584543082;220933;-19.36909;-8.161834;0.4764461;
1584543082;247156;797;739277;1584543082;247156;-8.846575;-3.04303;-1.94888;
1584543082;330026;797;821906;1584543082;330026;-20.35071;-2.619257;1.493982;
1584543082;354886;797;846937;1584543082;354886;-12.5528;-4.386178;-2.286463;
1584543082;435137;797;927282;1584543082;435137;-18.90222;4.086902;3.536236;
1584543082;470353;797;963851;1584543082;470353;-17.64287;2.525883;1.343147;
1584543082;546583;798;38618;1584543082;546583;-5.284003;-1.276109;-6.988675;
1584543082;630167;798;122021;1584543082;630167;-11.39401;2.226608;-0.5386954;
1584543082;655594;798;148025;1584543082;655594;-8.836998;2.090138;1.16837;
1584543082;739884;798;232475;1584543082;739884;-11.96861;-0.1723825;2.480393;
1584543082;763231;798;262580;1584543082;763231;-17.68357;-8.51857;1.13964;
1584543082;860336;798;352391;1584543082;860336;-15.78976;-5.025429;0.8259996;
1584543082;891470;798;383676;1584543082;891470;-9.050082;-1.362301;2.731784;
1584543082;919107;798;410807;1584543082;919107;-14.97813;1.388637;-1.252167;
1584543082;939534;798;431617;1584543082;939534;-13.47696;-5.470751;-2.147599;
1584543082;964879;798;464484;1584543082;964879;-1.695095;2.72939;1.613692;
1584543083;45150;798;539886;1584543083;45150;-19.86469;-2.975993;-0.9768343;
1584543083;77063;798;569266;1584543083;77063;-13.46738;-2.712631;3.169923;
1584543083;151236;798;643408;1584543083;151236;-20.62605;-6.555324;-1.654393;
1584543083;177579;798;670465;1584543083;177579;-11.9734;-1.910573;-2.15957;
1584543083;254600;798;746537;1584543083;254600;-14.47056;-4.235343;-7.127538;
1584543083;335578;798;827639;1584543083;335578;-11.20726;-5.925649;-2.80361;
1584543083;360291;798;853087;1584543083;360291;-16.16326;-12.02368;2.619257;
1584543083;445910;798;937963;1584543083;445910;-5.075707;-0.6799533;-5.837064;
1584543083;470886;798;969881;1584543083;470886;-4.429273;0.6153098;1.268927;
1584543083;559545;799;51341;1584543083;559545;-8.190564;5.389348;-0.01675941;
1584543083;655486;799;150939;1584543083;655486;-11.58794;-0.2896984;-2.20506;
1584543083;686764;799;178527;1584543083;686764;-10.01495;5.542577;4.448427;
1584543083;789489;799;281568;1584543083;789489;-19.98919;-6.950367;-0.9959879;
1584543083;810929;799;302843;1584543083;810929;-15.69639;-1.958457;-3.670311;
1584543083;896437;799;388481;1584543083;896437;-2.47321;3.236961;2.329558;
1584543083;989571;799;481634;1584543083;989571;-3.811569;1.584962;0.6751649;
1584543084;25622;799;517579;1584543084;25622;-3.809175;2.406173;-1.707066;
1584543084;101204;799;593253;1584543084;101204;-12.29901;-2.408567;0.06464344;
1584543084;196699;799;688832;1584543084;196699;-9.196129;1.501164;-3.239355;
1584543084;281285;799;781450;1584543084;281285;-18.28691;-11.54005;6.634333;
1584543084;376795;799;868963;1584543084;376795;-8.616732;1.400608;-1.572991;
1584543084;472411;799;964683;1584543084;472411;-9.52174;-6.933608;2.099715;
1584543084;569121;800;64082;1584543084;569121;-9.631873;-1.455675;7.319075;
1584543084;656685;800;148901;1584543084;656685;-13.09628;-1.872266;-5.23133;
1584543084;688155;800;183016;1584543084;688155;-14.51844;-5.978322;-3.392584;
1584543084;782240;800;274150;1584543084;782240;-10.46745;0.8762778;-2.604891;
1584543084;881133;800;373253;1584543084;881133;-8.044518;-1.90339;-0.3399766;
1584543084;917422;800;409413;1584543084;917422;-7.199364;2.439692;-1.572991;
1584543085;15760;800;507765;1584543085;15760;-1.939303;4.702212;4.553771;
1584543085;38962;800;532205;1584543085;38962;-9.986216;3.670311;-0.4644751;
1584543085;59990;800;552164;1584543085;59990;-13.08431;-1.23062;-4.695029;
1584543085;91360;800;583280;1584543085;91360;-3.157952;0.9696517;1.067814;
1584543085;196653;800;688801;1584543085;196653;-1.513135;3.201048;4.893748;
1584543085;292905;800;785504;1584543085;292905;-3.560178;0.3711013;-4.592079;
1584543085;388429;800;880687;1584543085;388429;-16.10579;1.580173;2.918532;
1584543085;520277;801;12527;1584543085;520277;-6.670246;4.912902;0.7254431;
1584543085;597557;801;89664;1584543085;597557;-9.018958;3.785233;2.892196;
1584543085;698446;801;190441;1584543085;698446;-13.544;-1.482011;1.484405;
1584543085;798451;801;290505;1584543085;798451;-14.9063;-0.1460463;5.659893;
1584543085;911079;801;413717;1584543085;911079;-17.24783;-5.166687;-2.102109;
1584543086;840;801;501827;1584543086;840;-9.962273;7.515399;2.245761;
1584543086;123801;801;625812;1584543086;123801;5.166687;5.674258;3.023877;
1584543086;222366;801;718663;1584543086;222366;-3.433285;6.409278;-3.684676;
1584543086;316752;801;813554;1584543086;316752;-4.323928;2.456451;4.168305;
1584543086;416542;801;908622;1584543086;416542;-2.44448;6.797139;-2.707842;
1584543086;512231;802;4271;1584543086;512231;-23.56852;-6.014235;0.04548983;
1584543086;544513;802;36704;1584543086;544513;-15.16487;-4.88896;-2.154782;
1584543086;566654;802;58567;1584543086;566654;-7.323863;3.263297;1.369483;
1584543086;587719;802;80498;1584543086;587719;-15.06671;-1.836353;-1.843535;
1584543086;678812;802;170813;1584543086;678812;-16.12734;-3.694253;-1.127669;
1584543086;773076;802;265368;1584543086;773076;-10.82179;-0.8762778;-7.146692;
1584543086;792931;802;286312;1584543086;792931;-3.871424;0.7709329;-7.424419;
1584543086;898346;802;406760;1584543086;898346;-1.953669;5.374983;3.924097;
1584543087;21581;802;513624;1584543087;21581;-15.8975;-1.465251;3.608062;
1584543087;123396;802;615275;1584543087;123396;-5.688623;5.281609;2.999935;
1584543087;228817;802;724328;1584543087;228817;-14.92066;-7.513005;-2.715025;
1584543087;320349;802;812382;1584543087;320349;-5.872977;10.77151;-1.592144;
1584543087;412252;802;904473;1584543087;412252;-8.35337;-2.032677;2.363077;
1584543087;508041;803;2685;1584543087;508041;-18.50957;-5.542577;-3.861847;
1584543087;548288;803;40386;1584543087;548288;-16.03397;-4.225766;2.087744;
1584543087;624945;803;117112;1584543087;624945;-10.29986;1.096544;3.428497;
1584543087;708890;803;201136;1584543087;708890;-5.336676;1.426944;-2.061408;
1584543087;750906;803;242921;1584543087;750906;-2.743755;1.932121;-0.2106898;
1584543087;828969;803;321022;1584543087;828969;-1.893813;2.810793;-4.793192;
1584543087;914207;803;406326;1584543087;914207;-15.72991;-3.313575;-3.04303;
1584543088;9048;803;501146;1584543088;9048;-7.304709;-2.956839;-0.7469909;
1584543088;37429;803;542709;1584543088;37429;-5.382165;-2.252944;2.856282;
1584543088;129503;803;622236;1584543088;129503;-17.57105;-7.965509;-1.448492;
1584543088;219190;803;718141;1584543088;219190;-8.791509;0.56982;-4.120421;
1584543088;314557;803;806428;1584543088;314557;-15.67244;4.355053;-2.171541;
1584543088;353211;803;846042;1584543088;353211;-10.72842;6.090849;1.695095;
1584543088;439448;803;936426;1584543088;439448;-14.30775;1.467646;-5.24809;
1584543088;532605;804;24700;1584543088;532605;-13.47696;-2.92332;-0.08619126;
1584543088;619243;804;111614;1584543088;619243;-10.9008;-4.515464;5.473145;
1584543088;720769;804;213241;1584543088;720769;-17.31487;-3.890578;2.765303;
1584543088;819661;804;311647;1584543088;819661;-5.465962;3.761291;-1.496376;
1584543088;858285;804;351355;1584543088;858285;-6.363788;1.120486;-2.92332;
1584543088;939093;804;431033;1584543088;939093;-12.09311;-2.925714;-0.1651999;
1584543089;24731;804;516806;1584543089;24731;-10.33337;4.869806;0.5889736;
1584543089;119901;804;611894;1584543089;119901;-0.09097967;2.662352;0.8930372;
1584543089;160019;804;652105;1584543089;160019;0.1843535;3.399766;-1.637634;
1584543089;241108;804;733352;1584543089;241108;-13.97017;-6.629544;-3.916914;
1584543089;324740;804;816680;1584543089;324740;-8.00621;0.4572925;-3.555389;
1584543089;367032;804;859056;1584543089;367032;-5.74369;-0.8930372;-2.571373;
1584543089;442560;804;934611;1584543089;442560;-9.323021;-0.8714894;-3.157952;
1584543089;529804;805;21934;1584543089;529804;-7.082048;1.252167;-5.702988;
1584543089;625466;805;117499;1584543089;625466;-20.19988;-3.483563;-0.9457096;
1584543089;720317;805;212312;1584543089;720317;-3.517082;-1.601721;-0.248997;
1584543089;745891;805;237848;1584543089;745891;-5.717353;-3.110068;1.608904;
1584543089;843440;805;335153;1584543089;843440;-14.56393;3.289633;-4.340688;
1584543089;930387;805;422241;1584543089;930387;-11.57357;6.088455;5.760449;
1584543090;25632;805;517595;1584543090;25632;-11.05882;1.66397;-5.547365;
1584543090;57308;805;552323;1584543090;57308;-3.332729;6.892907;-0.962469;
1584543090;144240;805;636375;1584543090;144240;-11.1474;3.201048;5.214571;
1584543090;230471;805;722365;1584543090;230471;-9.883265;5.011064;0.7302315;
1584543090;258991;805;750730;1584543090;258991;-3.699042;7.292738;-2.025495;
1584543090;348307;805;840214;1584543090;348307;-2.446874;4.879383;-2.80361;
1584543090;436131;805;928251;1584543090;436131;-12.56238;5.664681;3.610456;
1584543090;474641;805;966571;1584543090;474641;-9.157822;7.874529;4.256891;
1584543090;575344;806;67397;1584543090;575344;-9.514558;-0.9528922;7.620744;
1584543090;660080;806;153038;1584543090;660080;-5.370194;-0.2920926;2.470816;
1584543090;749202;806;242060;1584543090;749202;-14.78659;-2.094926;1.740585;
1584543090;836698;806;328660;1584543090;836698;-16.66604;6.153098;2.394202;
1584543090;866903;806;366475;1584543090;866903;-10.84573;1.956063;1.06542;
1584543090;953143;806;445368;1584543090;953143;-11.90158;5.382165;3.143587;
1584543091;41297;806;533426;1584543091;41297;-14.47295;-3.552995;-3.430891;
1584543091;136356;806;628392;1584543091;136356;-15.99087;-7.19697;-5.236119;
1584543091;164257;806;656312;1584543091;164257;-19.87427;-9.976639;3.05979;
1584543091;246252;806;738427;1584543091;246252;-8.497022;4.72376;0.593762;
1584543091;341302;806;833406;1584543091;341302;-7.841011;2.0231;-3.588908;
1584543091;370440;806;862340;1584543091;370440;-3.995923;-3.541024;0.9720459;
1584543091;466253;806;958016;1584543091;466253;-10.75475;2.738967;-1.460463;
1584543091;571882;807;63945;1584543091;571882;-4.788404;7.007828;3.569755;
1584543091;657003;807;156746;1584543091;657003;-6.940791;3.533842;3.691859;
1584543091;751950;807;244002;1584543091;751950;-3.677494;2.008735;5.62398;
1584543091;790550;807;283226;1584543091;790550;-6.543353;-3.739743;-1.508347;
1584543091;871497;807;363441;1584543091;871497;-14.44901;-4.896142;-1.824382;
1584543091;968784;807;460730;1584543091;968784;-5.566519;3.41892;4.501099;
1584543092;56650;807;548701;1584543092;56650;-6.246472;-2.537854;0.8164228;
1584543092;100485;807;592611;1584543092;100485;-11.85369;3.804386;0.7374141;
1584543092;193420;807;689664;1584543092;193420;-8.259995;0.3471592;0.4046201;
1584543092;282188;807;774151;1584543092;282188;-9.447519;-3.143587;-8.444349;
1584543092;382382;807;874315;1584543092;382382;-11.74595;-5.801151;-2.384625;
1584543092;507460;807;999326;1584543092;507460;-0.4932055;-1.68073;1.66397;
1584543092;529137;808;21425;1584543092;529137;-6.940791;-1.228225;-1.707066;
1584543092;552591;808;45015;1584543092;552591;-12.08832;-3.828328;-3.141193;
1584543092;632416;808;124588;1584543092;632416;-9.959879;0.7541735;-0.3351882;
1584543092;651770;808;144632;1584543092;651770;-9.009381;-2.066196;2.841917;
1584543092;732488;808;224479;1584543092;732488;-15.1122;3.473987;3.646369;
1584543092;752993;808;245111;1584543092;752993;-2.741361;3.754108;-8.066066;
1584543092;837629;808;329729;1584543092;837629;-7.134721;4.173093;-1.211466;
1584543092;857907;808;349824;1584543092;857907;-8.279149;0.85473;0.7733271;
1584543092;937582;808;429773;1584543092;937582;-9.109938;0.3423708;1.692701;
1584543092;980009;808;472016;1584543092;980009;-6.203376;4.800375;-1.237802;
1584543093;67828;808;560205;1584543093;67828;-7.946355;-0.5434838;0.5841852;
1584543093;102422;808;595122;1584543093;102422;-14.9901;4.55856;1.007959;
1584543093;196870;808;692609;1584543093;196870;-5.8634;-0.5075707;3.514688;
1584543093;288060;808;780102;1584543093;288060;-6.181828;3.265691;-1.417367;
1584543093;408893;808;903325;1584543093;408893;-12.48097;-1.551443;-9.131485;
1584543093;435156;808;927409;1584543093;435156;-8.271967;-2.413355;-0.1819593;
1584543093;459882;808;952114;1584543093;459882;-6.698976;3.70383;-4.338294;
1584543093;543414;809;35413;1584543093;543414;-9.210494;-5.023035;-0.4429273;
1584543093;563594;809;55713;1584543093;563594;-10.00776;0.8403648;0.1101333;
1584543093;642489;809;134409;1584543093;642489;-9.141062;3.524265;2.616862;
1584543093;662093;809;154925;1584543093;662093;-8.50181;-6.380548;-4.711789;
1584543093;748229;809;240478;1584543093;748229;-10.43872;6.009446;-4.455609;
1584543093;769616;809;261834;1584543093;769616;-2.078167;4.539406;2.70066;
1584543093;858187;809;350088;1584543093;858187;-5.073313;2.140416;-2.420538;
1584543093;884506;809;377520;1584543093;884506;-6.354211;5.956774;1.321599;
1584543093;963961;809;456014;1584543093;963961;-6.67264;-1.968034;-10.01495;
1584543093;994981;809;489878;1584543093;994981;-12.42591;-0.3663129;1.580173;
1584543094;91045;809;582991;1584543094;91045;-3.189077;-2.580949;1.774103;
1584543094;190555;809;684055;1584543094;190555;-12.14579;5.832275;-3.050213;
1584543094;292263;809;785480;1584543094;292263;-15.41387;-4.611232;3.351882;
1584543094;331781;809;823902;1584543094;331781;-7.089231;-2.72939;-7.2257;
1584543094;406972;809;899033;1584543094;406972;-8.379705;7.582437;-5.858612;
1584543094;438109;809;929935;1584543094;438109;-6.548141;4.103662;1.484405;
1584543094;455300;809;947328;1584543094;455300;-7.422025;3.062184;6.988675;
1584543094;471399;809;963390;1584543094;471399;-10.97502;-2.264915;-4.491522;
1584543094;493097;809;985406;1584543094;493097;-5.887342;4.197035;-3.44765;
1584543094;578666;810;73439;1584543094;578666;-5.159504;2.236184;-1.996764;
1584543094;611121;810;103623;1584543094;611121;-8.561666;3.481169;-2.750938;
1584543094;689333;810;181934;1584543094;689333;-4.60405;-2.956839;0.4932055;
1584543094;717598;810;213553;1584543094;717598;-14.22874;-1.101333;2.983175;
1584543094;740205;810;233876;1584543094;740205;-7.57286;-4.247314;-4.824317;
1584543094;818898;810;314278;1584543094;818898;-12.40436;2.195483;1.046266;
1584543094;840764;810;333051;1584543094;840764;-10.21127;-4.733336;3.375824;
1584543094;869174;810;361296;1584543094;869174;-4.027047;-3.699042;0.8140286;
1584543094;888423;810;380585;1584543094;888423;-7.12275;2.791639;2.035071;
1584543094;915599;810;407386;1584543094;915599;-8.422801;1.80044;1.369483;
1584543094;994024;810;488290;1584543094;994024;-5.343858;-0.5051765;-12.15057;
1584543095;20629;810;516557;1584543095;20629;-5.485116;9.318233;10.35732;
1584543095;101558;810;593734;1584543095;101558;-7.261614;0.1436521;-3.902549;
1584543095;195541;810;688076;1584543095;195541;-10.33816;-0.6200982;3.339911;
1584543095;294407;810;793807;1584543095;294407;-13.54879;5.042189;-4.702212;
1584543095;335738;810;827581;1584543095;335738;-11.15459;2.528277;5.707777;
1584543095;409464;810;901659;1584543095;409464;-6.081272;0.2322376;-3.009511;
1584543095;504889;810;996985;1584543095;504889;-11.46823;3.974375;-1.891419;
1584543095;537044;811;29227;1584543095;537044;-3.948039;8.061277;2.501941;
1584543095;553462;811;45606;1584543095;553462;-14.60224;1.927332;0.07422026;
1584543095;570856;811;63239;1584543095;570856;-6.320693;-2.920926;1.192312;
1584543095;589506;811;81418;1584543095;589506;2.63841;8.487445;2.885013;
1584543095;616027;811;108235;1584543095;616027;-1.977611;5.121197;0.7206547;
1584543095;711184;811;203039;1584543095;711184;-19.96764;-3.272874;0.7924808;
1584543095;749355;811;241388;1584543095;749355;-6.370971;-0.5770026;-2.432509;
1584543095;839090;811;330889;1584543095;839090;-4.127604;3.258508;2.066196;
1584543095;856022;811;348269;1584543095;856022;-6.17704;-1.173159;0.6464344;
1584543095;872431;811;364646;1584543095;872431;-6.885724;2.633622;0.002394202;
1584543095;887881;811;381674;1584543095;887881;-15.01404;0.06943185;-2.193089;
1584543095;912260;811;405248;1584543095;912260;-7.096414;2.47321;1.745373;
1584543095;942854;811;437028;1584543095;942854;-10.37408;2.705448;0.4501099;
1584543095;961226;811;453476;1584543095;961226;-11.95425;1.218649;-1.302446;
1584543095;979413;811;471340;1584543095;979413;-13.55358;-0.9552864;-2.138022;
1584543095;998771;811;490780;1584543095;998771;-8.183381;-0.2944868;0.9935937;
1584543096;24135;811;519205;1584543096;24135;-13.50809;0.4261679;-4.802769;
1584543096;120440;811;614301;1584543096;120440;-7.115567;-0.5650316;-0.308852;
1584543096;220082;811;712114;1584543096;220082;-17.11854;-2.219425;-1.347936;
1584543096;251661;811;744274;1584543096;251661;-12.21282;-4.537012;-1.374272;
1584543096;270038;811;761955;1584543096;270038;-10.24718;-2.425326;-1.132457;
1584543096;286984;811;784226;1584543096;286984;-5.355829;4.120421;-7.644686;
1584543096;315675;811;808027;1584543096;315675;-11.85848;-1.896208;3.155558;
1584543096;338845;811;837237;1584543096;338845;-1.94888;1.742979;2.628834;
1584543096;363716;811;855880;1584543096;363716;-11.08515;-0.8595184;-3.512294;
1584543096;394256;811;885971;1584543096;394256;-8.310274;0.06703765;-0.2011129;
1584543096;475402;811;967327;1584543096;475402;-3.320758;2.844311;-1.656788;
1584543096;499307;811;991180;1584543096;499307;-9.26556;3.797204;-3.6751;
1584543096;522853;812;15044;1584543096;522853;-17.04672;-4.359841;1.091756;
1584543096;550351;812;42087;1584543096;550351;-3.756502;1.244985;-0.8690952;
1584543096;567315;812;59353;1584543096;567315;-9.5385;2.770091;1.934515;
1584543096;583578;812;75340;1584543096;583578;-11.1067;0.5602432;1.297657;
1584543096;610498;812;106422;1584543096;610498;-7.946355;2.430115;-0.3902549;
1584543096;689933;812;181950;1584543096;689933;-12.35647;-6.133945;1.580173;
1584543096;810424;812;302296;1584543096;810424;1.577779;-1.968034;4.76925;
1584543096;838290;812;331221;1584543096;838290;-17.56386;-3.562572;-0.3303998;
1584543096;920872;812;412798;1584543096;920872;-10.21606;-0.02873042;0.2178724;
1584543096;953080;812;446050;1584543096;953080;-8.944737;-1.45328;-7.074866;
1584543096;975149;812;467403;1584543096;975149;-6.28478;1.027112;7.110779;
1584543097;6567;812;499335;1584543097;6567;-9.387665;8.329428;-10.16099;
1584543097;80748;812;572789;1584543097;80748;-6.335058;6.653486;0.2442086;
1584543097;111413;812;603262;1584543097;111413;2.317587;8.923189;0.3399766;
1584543097;137427;812;633342;1584543097;137427;-4.050989;5.085284;-1.716643;
1584543097;220404;812;712368;1584543097;220404;-3.330334;-0.3112462;1.759738;
1584543097;249928;812;744529;1584543097;249928;-14.47295;2.339135;-2.288857;
1584543097;274564;812;766762;1584543097;274564;-10.84095;0.06703765;0.1388637;
1584543097;300868;812;792978;1584543097;300868;-8.552089;3.026271;-2.568978;
1584543097;395947;812;890717;1584543097;395947;-12.39239;1.228225;-0.866701;
1584543097;420075;812;913122;1584543097;420075;-10.52012;1.656788;0.1125275;
1584543097;510914;813;2804;1584543097;510914;-12.78983;-1.18513;2.801216;
1584543097;531756;813;23952;1584543097;531756;-8.468291;-1.975216;1.228225;
1584543097;621115;813;113209;1584543097;621115;-9.308656;-2.284068;-0.3663129;
1584543097;648333;813;141780;1584543097;648333;-10.74039;0.8930372;-1.934515;
1584543097;731159;813;223035;1584543097;731159;-4.896142;1.489193;6.572083;
1584543097;816200;813;308343;1584543097;816200;-8.882488;-2.396596;-0.9217677;
1584543097;841099;813;334045;1584543097;841099;-11.29584;2.396596;-0.9002198;
1584543097;925977;813;417915;1584543097;925977;-7.398083;-0.02873042;-0.3040636;
1584543097;951348;813;444474;1584543097;951348;-3.459621;0.6272808;0.1915361;
1584543098;31458;813;523379;1584543098;31458;-13.07474;3.066972;-2.255338;
1584543098;75160;813;566985;1584543098;75160;-3.280056;3.234566;0.3040636;
1584543098;173162;813;665360;1584543098;173162;-11.46583;-1.391031;0.5267243;
1584543098;194498;813;686415;1584543098;194498;-13.55358;-1.367089;-2.20506;
1584543098;281614;813;773656;1584543098;281614;-12.56956;-2.767697;0.629675;
1584543098;311677;813;803383;1584543098;311677;-12.95502;1.194707;-3.078943;
1584543098;332400;813;824652;1584543098;332400;-13.38359;1.661576;-3.521871;
1584543098;411524;813;903709;1584543098;411524;-18.70111;-3.962404;-0.1843535;
1584543098;434337;813;928959;1584543098;434337;-4.158728;7.841011;-0.85473;
1584543098;521595;814;13574;1584543098;521595;-12.77307;-1.821988;-3.684676;
1584543098;542144;814;34315;1584543098;542144;-4.702212;-2.226608;5.667075;
1584543098;631608;814;123735;1584543098;631608;-7.264008;-0.3136404;3.526659;
1584543098;658619;814;151723;1584543098;658619;-2.231396;-0.641646;-3.205836;
1584543098;742254;814;234461;1584543098;742254;-18.23185;2.506729;-4.486734;
1584543098;775137;814;268028;1584543098;775137;-3.301604;-2.262521;0.6679823;
1584543098;797287;814;289992;1584543098;797287;-10.18254;1.436521;-2.099715;
1584543098;882077;814;373992;1584543098;882077;-11.40119;0.5027823;0.05746084;
1584543098;902318;814;394254;1584543098;902318;-7.022193;-0.3232172;2.717419;
1584543098;927359;814;419295;1584543098;927359;-15.16008;-1.345541;-3.011906;
1584543099;21848;814;513872;1584543099;21848;-5.626374;0.4668693;-0.4764461;
1584543099;42194;814;534082;1584543099;42194;-8.65025;1.414973;0.5506664;
1584543099;131972;814;624160;1584543099;131972;-6.270414;-0.5506664;3.32794;
1584543099;154392;814;647254;1584543099;154392;-10.23521;2.032677;-3.20823;
1584543099;242300;814;734226;1584543099;242300;-9.660604;1.276109;-5.216965;
1584543099;272637;814;772094;1584543099;272637;-11.05163;-0.8451532;3.550601;
1584543099;358385;814;854698;1584543099;358385;-12.62223;-1.422156;-0.9169793;
1584543099;457219;814;955068;1584543099;457219;-6.696582;-1.120486;-0.06943185;
1584543099;488988;814;982009;1584543099;488988;-3.471592;7.8865;2.44448;
1584543099;577553;815;69689;1584543099;577553;-10.66617;-2.226608;1.371878;
1584543099;605619;815;97793;1584543099;605619;-12.89278;-0.5746084;0.9768343;
1584543099;631301;815;123224;1584543099;631301;-13.21839;-2.509123;2.379837;
1584543099;651365;815;144153;1584543099;651365;-13.80736;-0.6153098;0.248997;
1584543099;742871;815;236025;1584543099;742871;-11.8106;-1.505953;-1.221043;
1584543099;775027;815;267038;1584543099;775027;-5.200206;1.472434;0.56982;
1584543099;857951;815;349893;1584543099;857951;-14.23113;2.30801;-4.266468;
1584543099;891445;815;384459;1584543099;891445;-6.811504;3.1795;-0.806846;
1584543099;922660;815;414439;1584543099;922660;-8.238448;1.484405;0.7158663;
1584543099;998012;815;489935;1584543099;998012;-12.67969;-0.6679823;2.698265;
1584543100;87936;815;583216;1584543100;87936;-7.838616;6.260838;4.994305;
1584543100;178527;815;670420;1584543100;178527;-13.07713;1.699883;-1.472434;
1584543100;203487;815;696488;1584543100;203487;-2.999935;2.820369;0.6009446;
1584543100;301170;815;793153;1584543100;301170;-9.852139;3.438074;-2.70066;
1584543100;407851;815;899886;1584543100;407851;-2.116474;0.6272808;4.082114;
1584543100;432213;815;924359;1584543100;432213;-14.31014;-0.3519476;-5.705382;
1584543100;460458;815;952733;1584543100;460458;-15.68441;-3.016694;-2.999935;
1584543100;543146;816;35047;1584543100;543146;-1.805228;1.458069;-1.388637;
1584543100;564040;816;57267;1584543100;564040;-9.138668;-0.3423708;0.4836287;
1584543100;643281;816;135282;1584543100;643281;-5.961562;-0.5410896;-3.213019;
1584543100;666852;816;159003;1584543100;666852;-19.12728;-2.449268;-3.062184;
1584543100;749471;816;242309;1584543100;749471;-12.94066;0.7565677;-1.067814;
1584543100;776659;816;275674;1584543100;776659;-5.671864;1.165976;0.6512228;
1584543100;863592;816;355608;1584543100;863592;-9.244013;-3.009511;3.076549;
1584543100;892378;816;384539;1584543100;892378;-10.53688;-0.1412579;-1.826776;
1584543100;989379;816;481582;1584543100;989379;-2.885013;4.340688;4.417302;
1584543101;86531;816;579894;1584543101;86531;-10.26634;1.039083;-2.243367;
1584543101;188318;816;687293;1584543101;188318;2.331952;3.560178;4.886566;
1584543101;288266;816;780397;1584543101;288266;-15.84722;-1.527501;-5.135562;
1584543101;413633;816;906304;1584543101;413633;-13.56076;-3.071761;-0.248997;
1584543101;499471;816;992951;1584543101;499471;-11.6023;-1.517924;1.869871;
1584543101;586131;817;90548;1584543101;586131;-14.04199;1.115698;1.163582;
1584543101;689655;817;181801;1584543101;689655;-12.57914;-1.031901;5.473145;
1584543101;791966;817;284179;1584543101;791966;-2.959233;6.138733;1.11091;
1584543101;884373;817;379109;1584543101;884373;-5.918467;8.528147;1.477222;
1584543101;921433;817;424960;1584543101;921433;-8.183381;1.367089;-0.7924808;
1584543102;10106;817;502048;1584543102;10106;-7.630321;1.35033;-5.485116;
1584543102;40514;817;532798;1584543102;40514;-10.61589;0.4022259;-0.4094085;
1584543102;61149;817;553391;1584543102;61149;-6.797139;6.58166;-0.8259996;
1584543102;82670;817;574571;1584543102;82670;-13.02925;0.3280056;3.562572;
1584543102;179552;817;671544;1584543102;179552;-12.94066;-1.091756;-1.525106;
1584543102;274791;817;766680;1584543102;274791;-5.837064;8.63828;0.818817;
1584543102;306704;817;802510;1584543102;306704;-8.367735;-4.563348;-3.620033;
1584543102;399803;817;892775;1584543102;399803;-14.32211;-5.209783;-4.31914;
1584543102;497978;817;989800;1584543102;497978;-7.445967;-1.501164;-2.762909;
1584543102;590470;818;82746;1584543102;590470;-9.255983;4.374207;-4.539406;
1584543102;622845;818;115937;1584543102;622845;-13.28543;0.4548983;8.343793;
1584543102;709869;818;216463;1584543102;709869;-4.113238;1.584962;6.083666;
1584543102;810036;818;301890;1584543102;810036;-7.663839;-1.781286;7.240066;
1584543102;917936;818;410483;1584543102;917936;-16.00045;-4.733336;3.406949;
1584543103;18483;818;510661;1584543103;18483;-5.89213;-0.5722142;1.896208;
1584543103;138239;818;629999;1584543103;138239;-10.33577;-3.969586;-6.38773;
1584543103;223816;818;724377;1584543103;223816;-6.524199;1.793257;4.975151;
1584543103;324438;818;828696;1584543103;324438;-4.896142;8.219295;5.214571;
1584543103;415692;818;907810;1584543103;415692;-2.363077;-3.933673;0.7661445;
1584543103;536844;819;33404;1584543103;536844;-4.975151;-3.021482;2.504335;
1584543103;637407;819;133354;1584543103;637407;-11.32457;-3.61285;5.664681;
1584543103;715806;819;207875;1584543103;715806;-10.80743;-1.699883;-0.6943185;
1584543103;810500;819;306166;1584543103;810500;-10.79306;1.462857;-3.655946;
1584543103;910529;819;406416;1584543103;910529;-7.113173;5.882554;-0.4237737;
1584543104;10673;819;502791;1584543104;10673;-6.777985;-6.126762;3.847482;
1584543104;108253;819;600442;1584543104;108253;-15.76821;-2.530671;6.816292;
1584543104;147898;819;640865;1584543104;147898;-8.537724;7.443573;-5.566519;
1584543104;226052;819;717904;1584543104;226052;-10.57519;4.781221;3.078943;
1584543104;332388;819;836978;1584543104;332388;-10.83855;3.579331;-7.577648;
1584543104;435357;819;943813;1584543104;435357;-12.84489;0.2825158;2.255338;
1584543104;547206;820;39115;1584543104;547206;-9.744401;-2.549825;-1.956063;
1584543104;629054;820;125141;1584543104;629054;-6.98628;-6.880936;-7.551312;
1584543104;716683;820;208739;1584543104;716683;-9.279925;-0.9433154;2.511518;
1584543104;811459;820;303298;1584543104;811459;-14.98052;-6.777985;5.738902;
1584543104;838363;820;340337;1584543104;838363;-10.64462;4.276044;-4.594473;
1584543104;921044;820;413259;1584543104;921044;-9.25359;-1.704672;-1.30484;
1584543105;16497;820;508464;1584543105;16497;-6.588843;8.118738;0.3136404;
1584543105;54198;820;547819;1584543105;54198;-12.56477;0.8595184;0.3734955;
1584543105;133487;820;629701;1584543105;133487;-8.597578;8.839393;-2.578555;
1584543105;226357;820;721235;1584543105;226357;-12.43788;-4.912902;-0.7350199;
1584543105;326233;820;818352;1584543105;326233;-5.597643;-5.049371;-4.405331;
1584543105;416758;820;908731;1584543105;416758;-1.625663;5.106832;-2.08535;
1584543105;441907;820;947025;1584543105;441907;-19.87906;3.438074;16.29015;
1584543105;535424;821;28008;1584543105;535424;-12.64617;1.39582;5.197812;
1584543105;622433;821;114276;1584543105;622433;-10.57279;-4.905719;-3.174711;
1584543105;722208;821;214136;1584543105;722208;-12.43548;3.938462;-1.043872;
1584543105;817498;821;309542;1584543105;817498;-6.799533;3.122039;-4.249708;
1584543105;851567;821;346928;1584543105;851567;-5.626374;2.597709;5.389348;
1584543105;932088;821;424386;1584543105;932088;-10.8601;-1.963245;-2.96881;
1584543106;22038;821;513896;1584543106;22038;-2.736573;-0.06943185;-5.841852;
1584543106;52151;821;548154;1584543106;52151;-14.58548;1.814805;4.623203;
1584543106;132676;821;624702;1584543106;132676;-10.05086;0.8858546;-6.67264;
1584543106;221990;821;713831;1584543106;221990;-4.390966;2.868254;-9.241618;
1584543106;253932;821;745698;1584543106;253932;-16.51281;-5.959168;11.22402;
1584543106;332841;821;824916;1584543106;332841;-9.631873;6.859388;-5.930438;
1584543106;427585;821;919618;1584543106;427585;-7.194576;3.268085;3.636792;
1584543106;522214;822;14736;1584543106;522214;-9.050082;3.873818;-3.248932;
1584543106;555444;822;51419;1584543106;555444;-11.19529;2.027889;5.861006;
1584543106;632661;822;124697;1584543106;632661;-8.453926;-2.590526;2.133234;
1584543106;728124;822;220144;1584543106;728124;-10.80024;-3.292027;-2.688689;
1584543106;759532;822;256314;1584543106;759532;-8.054094;7.364564;-1.762132;
1584543106;837648;822;329838;1584543106;837648;-11.30303;-5.774815;-0.3974375;
1584543106;927896;822;419916;1584543106;927896;-7.620744;5.183446;-7.37893;
1584543106;960825;822;455719;1584543106;960825;-16.88391;-0.4572925;9.272743;
1584543107;69639;822;562287;1584543107;69639;-10.00537;2.090138;-4.865018;
1584543107;90698;822;582643;1584543107;90698;-1.101333;5.360618;-0.6655881;
1584543107;118495;822;610269;1584543107;118495;-8.990228;-4.378995;-5.425261;
1584543107;139638;822;631881;1584543107;139638;-10.6949;-6.244078;-9.078813;
1584543107;228136;822;720082;1584543107;228136;-10.55604;3.572149;1.673547;
1584543107;251769;822;751137;1584543107;251769;-6.981492;2.964022;3.821146;
1584543107;338585;822;830508;1584543107;338585;-7.5561;4.060566;-1.778892;
1584543107;428492;822;920614;1584543107;428492;-14.06594;2.217031;-0.9888053;
1584543107;463987;822;956418;1584543107;463987;-8.748413;0.9481038;-5.758055;
1584543107;547952;823;43876;1584543107;547952;-17.24304;-7.338228;3.62961;
1584543107;638280;823;130257;1584543107;638280;-1.798045;1.371878;-7.769185;
1584543107;674403;823;167094;1584543107;674403;-4.66151;3.639187;9.816227;
1584543107;776209;823;268902;1584543107;776209;-20.4369;-2.554613;3.636792;
1584543107;855329;823;352854;1584543107;855329;-10.78348;-4.197035;-2.870648;
1584543107;962425;823;455316;1584543107;962425;-14.33648;-3.699042;-5.559336;
1584543108;53487;823;552964;1584543108;53487;-14.51126;-4.99191;0.5841852;
1584543108;143817;823;635885;1584543108;143817;-16.56309;1.501164;11.12586;
1584543108;172097;823;667064;1584543108;172097;0.03830723;-2.341529;-15.35162;
1584543108;253075;823;745519;1584543108;253075;-18.49042;0.01915361;2.841917;
1584543108;338847;823;830762;1584543108;338847;-9.361328;-2.925714;2.693477;
1584543108;356457;823;856896;1584543108;356457;-13.0077;6.01184;-2.25055;
1584543108;443998;823;936052;1584543108;443998;-11.89439;-2.937685;5.530606;
1584543108;473601;823;966274;1584543108;473601;-22.97236;-2.497152;3.038242;
1584543108;558948;824;58039;1584543108;558948;-17.00601;-3.53863;-2.770091;
1584543108;669872;824;161794;1584543108;669872;-8.288726;-0.5722142;9.734824;
1584543108;703919;824;196080;1584543108;703919;-19.55823;1.580173;-5.60722;
1584543108;794445;824;286668;1584543108;794445;-13.94383;-3.857059;5.482722;
1584543108;883138;824;376866;1584543108;883138;-4.999093;3.766079;-10.57279;
1584543108;979534;824;474055;1584543108;979534;-3.849876;2.719813;-6.667851;
1584543109;75974;824;568204;1584543109;75974;-6.821081;1.491588;5.631162;
1584543109;179625;824;671669;1584543109;179625;-12.69166;3.6751;2.657564;
1584543109;276215;824;772203;1584543109;276215;-13.07234;-6.981492;1.343147;
1584543109;364299;824;856593;1584543109;364299;-9.888053;0.1675941;12.37802;
1584543109;415003;824;907290;1584543109;415003;-8.508993;4.920084;-3.828328;
1584543109;498517;824;990364;1584543109;498517;-15.84004;8.207323;-5.224148;
1584543109;585129;825;80350;1584543109;585129;-15.8161;8.983045;-3.995923;
1584543109;684868;825;181116;1584543109;684868;-3.46441;-0.6344634;0.6368576;
1584543109;784945;825;277049;1584543109;784945;-9.782708;-2.1883;0.6799533;
1584543109;885335;825;377437;1584543109;885335;-9.947907;11.58794;-3.339911;
1584543109;985936;825;477936;1584543109;985936;-10.4866;-0.248997;0.3351882;
1584543110;85181;825;577274;1584543110;85181;-7.97748;-4.299986;1.843535;
1584543110;260309;825;752361;1584543110;260309;-5.439626;6.406884;6.244078;
1584543110;290461;825;782369;1584543110;290461;-10.5273;-1.584962;-3.107674;
1584543110;390623;825;882547;1584543110;390623;-3.526659;0.02394202;-1.651999;
1584543110;490481;825;982385;1584543110;490481;-13.9582;6.806715;-1.577779;
1584543110;590039;826;98267;1584543110;590039;-11.35809;-3.998317;1.620875;
1584543110;691713;826;196268;1584543110;691713;-5.679046;-2.509123;-3.387795;
1584543110;789535;826;281462;1584543110;789535;-15.17924;-1.587356;0.9959879;
1584543110;890624;826;382511;1584543110;890624;-12.5097;0.1556231;0.8140286;
1584543110;991815;826;484005;1584543110;991815;-7.718906;-0.4094085;2.583344;
1584543111;33491;826;525538;1584543111;33491;-15.01643;-0.5602432;-6.030994;
1584543111;110520;826;602219;1584543111;110520;-14.58069;-2.08535;0.5602432;
1584543111;202939;826;697548;1584543111;202939;-8.942343;3.885789;5.552154;
1584543111;290952;826;794963;1584543111;290952;-8.844181;-3.251326;-11.17374;
1584543111;408014;826;900286;1584543111;408014;-10.21845;-7.153874;-1.441309;
1584543111;500630;827;3227;1584543111;500630;-9.447519;-6.217741;0.5841852;
1584543111;614742;827;106602;1584543111;614742;-10.43633;-2.971204;-12.3038;
1584543111;709520;827;202344;1584543111;709520;-7.36217;-3.687071;-8.983045;
1584543111;796390;827;289815;1584543111;796390;-16.08185;0.6272808;2.367865;
1584543111;911004;827;402792;1584543111;911004;-11.79623;7.410054;3.907337;
1584543111;997162;827;502475;1584543111;997162;-11.07318;3.466804;-1.94888;
1584543112;106079;827;600634;1584543112;106079;-6.847417;-6.708553;7.975086;
1584543112;141336;827;634256;1584543112;141336;-5.525817;8.300697;-14.0396;
1584543112;217630;827;710490;1584543112;217630;-16.79054;2.135628;10.21606;
1584543112;315101;827;806792;1584543112;315101;-2.600103;-1.204283;-6.691793;
1584543112;410584;827;905640;1584543112;410584;-18.2917;-1.807622;1.807622;
1584543112;509212;828;7305;1584543112;509212;-9.694122;8.578424;-1.805228;
1584543112;611750;828;106858;1584543112;611750;-3.303998;-0.7038953;-3.713407;
1584543112;707917;828;201825;1584543112;707917;-5.209783;2.652776;-5.702988;
1584543112;747220;828;238983;1584543112;747220;-15.3995;2.624045;-1.70946;
1584543112;836321;828;329197;1584543112;836321;-6.107608;-3.957615;-1.223437;
1584543112;922119;828;418585;1584543112;922119;-8.798691;-5.827487;0.4429273;
1584543113;17233;828;509221;1584543113;17233;-10.86968;2.054225;0.3519476;
1584543113;42595;828;542688;1584543113;42595;1.853112;5.398925;-5.066131;
1584543113;129144;828;621553;1584543113;129144;-11.01812;-1.975216;0.260968;
1584543113;159703;828;651858;1584543113;159703;-13.05319;-0.9672575;5.990293;
1584543113;181541;828;673614;1584543113;181541;-28.01934;-3.615244;-4.096479;
1584543113;206726;828;698641;1584543113;206726;-5.707777;0.7182605;-4.460398;
1584543113;300542;828;792669;1584543113;300542;-2.837129;5.781997;-6.244078;
1584543113;392657;828;888774;1584543113;392657;-12.00213;-7.733272;-2.533065;
1584543113;487612;828;979639;1584543113;487612;-12.41394;7.010222;0.05746084;
1584543113;524626;829;16952;1584543113;524626;-12.18409;-4.663905;10.80024;
1584543113;612782;829;104855;1584543113;612782;-2.971204;-1.546654;0.9169793;
1584543113;640777;829;133008;1584543113;640777;-8.693346;-3.263297;3.306392;
1584543113;735166;829;231360;1584543113;735166;-19.326;-10.41717;2.987964;
1584543113;847904;829;340064;1584543113;847904;-13.52006;2.597709;-3.229778;
1584543113;878071;829;370004;1584543113;878071;-0.4979939;9.131485;-0.6272808;
1584543113;911259;829;403084;1584543113;911259;-2.980781;3.974375;5.48751;
1584543113;997940;829;496043;1584543113;997940;-8.204929;5.303157;-2.051831;
1584543114;23877;829;516191;1584543114;23877;-4.862624;-3.787627;-0.2944868;
1584543114;116541;829;608587;1584543114;116541;-16.20156;5.422867;2.358289;
1584543114;145531;829;638360;1584543114;145531;-0.4525041;4.414908;-1.460463;
1584543114;228076;829;720104;1584543114;228076;-6.464345;3.557784;-1.323994;
1584543114;256638;829;754766;1584543114;256638;-7.73806;-3.641581;1.158794;
1584543114;337793;829;833537;1584543114;337793;-3.394978;9.107543;-0.653617;
1584543114;438330;829;934144;1584543114;438330;0.7038953;2.41575;-1.587356;
1584543114;533303;830;25406;1584543114;533303;-6.624756;0.004788403;-6.933608;
1584543114;655571;830;147836;1584543114;655571;-11.44668;-0.3495534;2.942474;
1584543114;738839;830;233243;1584543114;738839;-0.2250549;-1.180341;-6.521805;
1584543114;833222;830;325423;1584543114;833222;-9.485827;3.636792;-1.036689;
1584543114;860422;830;361885;1584543114;860422;-14.24071;-10.45308;-2.458845;
1584543114;959109;830;452394;1584543114;959109;-11.15219;-3.435679;3.727772;
1584543114;989117;830;481205;1584543114;989117;-4.302381;6.670246;-5.77242;
1584543115;23541;830;515334;1584543115;23541;-2.616862;15.91665;-3.009511;
1584543115;119017;830;610874;1584543115;119017;-11.20486;-2.537854;-1.654393;
1584543115;140016;830;632226;1584543115;140016;-21.26051;2.425326;3.248932;
1584543115;171471;830;668456;1584543115;171471;3.323152;5.23133;9.215282;
1584543115;277304;830;770325;1584543115;277304;-13.0053;1.491588;5.200206;
1584543115;300581;830;792921;1584543115;300581;-16.67801;2.212242;-0.3256114;
1584543115;389284;830;881339;1584543115;389284;-6.964733;-2.293645;3.536236;
1584543115;481626;830;973772;1584543115;481626;-6.584054;-2.185906;-0.7685387;
1584543115;502771;831;12104;1584543115;502771;-7.594408;-2.154782;0.3495534;
1584543115;599028;831;90909;1584543115;599028;-14.13776;-5.295974;0.8523358;
1584543115;623541;831;115626;1584543115;623541;-12.25592;-2.027889;-3.878607;
1584543115;655170;831;146901;1584543115;655170;-13.71399;3.41892;-3.277662;
1584543115;740045;831;232182;1584543115;740045;-6.162675;2.930503;1.070208;
1584543115;764278;831;256448;1584543115;764278;-13.90313;-2.456451;-2.243367;
1584543115;856890;831;349964;1584543115;856890;-16.71871;-4.070143;0.06943185;
1584543115;977538;831;477177;1584543115;977538;-6.646304;2.30801;0.653617;
1584543116;65527;831;557870;1584543116;65527;-9.078813;-3.588908;-6.756437;
1584543116;162362;831;654296;1584543116;162362;-17.57105;-4.635174;0.4141969;
1584543116;254274;831;746476;1584543116;254274;-16.98926;0.5267243;5.628768;
1584543116;289021;831;781858;1584543116;289021;-3.694253;-3.023877;1.690306;
1584543116;374344;831;866271;1584543116;374344;-7.922413;3.220201;-3.095703;
1584543116;474773;831;966854;1584543116;474773;-1.319205;7.819463;4.000711;
1584543116;570018;832;61961;1584543116;570018;-16.87433;-2.724602;-4.127604;
1584543116;667654;832;160489;1584543116;667654;-7.364564;2.72939;3.124433;
1584543116;760403;832;252621;1584543116;760403;-13.09149;0.1915361;-0.6847417;
1584543116;850081;832;341999;1584543116;850081;-12.86644;-5.051765;0.6607997;
1584543116;872078;832;391664;1584543116;872078;-12.73955;-5.647922;0.3734955;
1584543116;980149;832;472174;1584543116;980149;-17.64287;-8.219295;-2.628834;
1584543117;75175;832;567081;1584543117;75175;-5.214571;4.474763;-0.4141969;
1584543117;165467;832;660243;1584543117;165467;-13.04361;-1.843535;1.273715;
1584543117;206641;832;698390;1584543117;206641;-12.39718;2.23379;-3.165135;
1584543117;285368;832;777647;1584543117;285368;-6.533776;7.230489;2.051831;
1584543117;381321;832;873517;1584543117;381321;-17.59978;-4.790798;-2.195483;
1584543117;485991;832;977917;1584543117;485991;-9.746795;3.924097;-1.462857;
1584543117;585587;833;77872;1584543117;585587;-5.214571;3.378219;-5.11162;
1584543117;685838;833;177955;1584543117;685838;-7.642292;2.53546;-0.866701;
1584543117;786034;833;277931;1584543117;786034;-10.30704;0.1723825;0.5434838;
1584543117;911343;833;403049;1584543117;911343;-12.15057;0.8858546;-1.972822;
1584543117;998546;833;503938;1584543117;998546;-8.655039;-2.123657;4.76925;
1584543118;90820;833;603213;1584543118;90820;-9.040505;4.673481;7.493851;
1584543118;198356;833;690630;1584543118;198356;-8.286332;-1.611298;-1.551443;
1584543118;298102;833;790117;1584543118;298102;-15.08347;1.23062;5.17387;
1584543118;397092;833;889314;1584543118;397092;-6.742072;4.52983;1.649605;
1584543118;496028;833;988037;1584543118;496028;-7.905654;1.596933;2.011129;
1584543118;586460;834;90322;1584543118;586460;-10.41957;-1.70946;3.502717;
1584543118;702510;834;194442;1584543118;702510;-14.41549;-13.74751;-1.489193;
1584543118;801851;834;293739;1584543118;801851;-10.49139;-0.1029507;-1.278504;
1584543118;896014;834;388741;1584543118;896014;-3.892972;-1.362301;-4.714183;
1584543118;986477;834;478605;1584543118;986477;-6.318298;-2.375048;3.007117;
1584543119;11525;834;511107;1584543119;11525;-9.466673;0.9074025;2.873042;
1584543119;111434;834;613907;1584543119;111434;-7.12275;1.915361;5.68144;
1584543119;207280;834;699136;1584543119;207280;-8.377312;2.916138;-1.80044;
1584543119;306654;834;798442;1584543119;306654;-14.47534;3.280056;5.348647;
1584543119;391902;834;884229;1584543119;391902;-10.12029;0.3112462;-1.838747;
1584543119;491796;834;984071;1584543119;491796;-9.392453;5.492299;-6.110003;
1584543119;587041;835;78938;1584543119;587041;-15.75864;-3.215413;1.091756;
1584543119;672053;835;164138;1584543119;672053;-11.20008;-7.120356;-1.455675;
1584543119;692855;835;185167;1584543119;692855;-8.822633;-1.984793;-1.118092;
1584543119;797066;835;289006;1584543119;797066;-8.140285;2.695871;2.947262;
1584543119;891924;835;383910;1584543119;891924;-6.428432;-0.3399766;-3.08852;
1584543119;991941;835;484196;1584543119;991941;-13.85524;5.513846;1.403002;
1584543120;92340;835;584427;1584543120;92340;-8.300697;-2.497152;5.959168;
1584543120;192672;835;684829;1584543120;192672;-9.730036;4.802769;4.122815;
1584543120;277567;835;769609;1584543120;277567;-3.172317;-0.3711013;-6.095637;
1584543120;300075;835;792256;1584543120;300075;-14.7411;5.851429;-0.9816227;
1584543120;402243;835;902836;1584543120;402243;-5.95438;1.486799;-0.7876924;
1584543120;520064;836;12451;1584543120;520064;-6.950367;0.3423708;1.041478;
1584543120;618617;836;111050;1584543120;618617;-10.91516;-1.805228;2.980781;
1584543120;721440;836;213468;1584543120;721440;-13.77624;0.2322376;-0.5913678;
1584543120;812940;836;307036;1584543120;812940;-6.782773;5.714959;-3.169923;
1584543120;917214;836;410485;1584543120;917214;-11.39161;-0.9289503;0.7565677;
1584543121;19715;836;512531;1584543121;19715;-2.882619;-1.438915;1.412579;
1584543121;112972;836;604932;1584543121;112972;-8.441955;0.3136404;4.120421;
1584543121;150544;836;642319;1584543121;150544;-6.698976;-2.482787;-9.631873;
1584543121;228463;836;720814;1584543121;228463;-20.83434;-11.08276;8.626308;
1584543121;317992;836;813102;1584543121;317992;-11.65497;-22.80717;2.355894;
1584543121;356404;836;848543;1584543121;356404;-12.52646;-12.65336;-2.410961;
1584543121;437044;836;936666;1584543121;437044;-8.269572;3.251326;6.200982;
1584543121;528385;837;20482;1584543121;528385;0.6105214;11.86327;-2.202666;
1584543121;613452;837;105406;1584543121;613452;-18.72505;1.290475;-6.339846;
1584543121;639097;837;134109;1584543121;639097;-7.216124;-0.818817;-0.3519476;
1584543121;731833;837;223993;1584543121;731833;-3.617639;7.630321;11.65737;
1584543121;823446;837;315831;1584543121;823446;-16.87433;7.94875;5.753267;
1584543121;918585;837;410558;1584543121;918585;-16.87912;2.164358;8.437166;
1584543121;958259;837;450485;1584543121;958259;3.028665;-5.432444;6.416461;
1584543122;33985;837;525912;1584543122;33985;-6.430826;3.5099;-3.028665;
1584543122;132830;837;624997;1584543122;132830;-10.46745;-2.195483;10.64223;
1584543122;241020;837;749871;1584543122;241020;-21.79921;3.105279;-10.31183;
1584543122;335739;837;828044;1584543122;335739;-10.93192;8.224083;-3.406949;
1584543122;423731;837;915710;1584543122;423731;-11.45865;2.090138;-2.549825;
1584543122;466408;837;958698;1584543122;466408;-9.866505;-7.31668;1.225831;
1584543122;538611;838;30495;1584543122;538611;-7.608773;-6.794744;-3.414132;
1584543122;652506;838;156147;1584543122;652506;-5.528212;3.289633;-10.98699;
1584543122;741656;838;233759;1584543122;741656;-9.323021;0.308852;-2.37026;
1584543122;829284;838;321357;1584543122;829284;-1.716643;11.4395;5.133168;
1584543122;868539;838;361749;1584543122;868539;-8.549694;3.473987;1.594538;
1584543122;945013;838;441447;1584543122;945013;-12.45942;-2.449268;-1.549048;
1584543123;34542;838;526750;1584543123;34542;-14.5352;2.975993;2.384625;
1584543123;129308;838;621294;1584543123;129308;-11.13783;2.018312;-5.942409;
1584543123;158475;838;660806;1584543123;158475;-12.96939;-3.924097;2.736573;
1584543123;252930;838;746159;1584543123;252930;-8.992621;0.5913678;-2.954445;
1584543123;343438;838;836149;1584543123;343438;-5.633556;4.812346;0.6200982;
1584543123;434555;838;926517;1584543123;434555;-9.088389;0.4955997;-0.8930372;
1584543123;476679;838;969184;1584543123;476679;-9.849746;-0.01436521;-0.3998317;
1584543123;557623;839;49759;1584543123;557623;-10.01495;-1.127669;0.2753332;
1584543123;683493;839;176225;1584543123;683493;-10.12987;0.3375824;-0.3974375;
1584543123;762787;839;254751;1584543123;762787;-10.09874;0.009576807;-0.5195417;
1584543123;849831;839;346789;1584543123;849831;-9.993398;-0.2705448;-0.4548983;
1584543123;945017;839;437134;1584543123;945017;-9.749189;0.1604115;-0.3711013;
1584543123;987409;839;479158;1584543123;987409;-9.914389;0.08619126;-0.3806781;
1584543124;64577;839;564777;1584543124;64577;-9.828197;0.1268927;-0.4979939;
1584543124;195996;839;688661;1584543124;195996;-9.840169;0.09816227;-0.5075707;
1584543124;295811;839;787946;1584543124;295811;-9.876081;0.1316811;-0.4477157;
1584543124;312633;839;804921;1584543124;312633;-9.811439;0.1460463;-0.5363012;
1584543124;332068;839;824161;1584543124;332068;-9.907207;0.08858546;-0.4812345;
1584543124;348507;839;840676;1584543124;348507;-9.878476;0.1364695;-0.5027823;
1584543124;445783;839;938966;1584543124;445783;-9.890447;0.1436521;-0.4333505;
1584543124;540544;840;32611;1584543124;540544;-9.840169;0.1268927;-0.3256114;
1584543124;567611;840;62378;1584543124;567611;-9.830592;0.1388637;-0.4477157;
1584543124;666214;840;163665;1584543124;666214;-9.801862;0.1340753;-0.4716577;
1584543124;750367;840;244779;1584543124;750367;-9.859323;0.1364695;-0.4189853;
1584543124;835841;840;327908;1584543124;835841;-9.890447;0.1149217;-0.3854665;
1584543124;852461;840;344682;1584543124;852461;-9.861716;0.1197101;-0.4429273;
1584543124;935862;840;427910;1584543124;935862;-9.821015;0.1316811;-0.5147533;
1584543124;950526;840;442444;1584543124;950526;-9.861716;0.1316811;-0.4692635;
1584543124;978155;840;469957;1584543124;978155;-9.844957;0.1221043;-0.3615245;
1584543125;55898;840;548192;1584543125;55898;-9.883265;0.1292869;-0.4309563;
1584543125;85260;840;579312;1584543125;85260;-9.885658;0.1388637;-0.4788403;
1584543125;167501;840;659708;1584543125;167501;-9.89763;0.1221043;-0.4860229;
1584543125;197126;840;689375;1584543125;197126;-9.888053;0.1149217;-0.4716577;
1584543125;215573;840;710727;1584543125;215573;-9.840169;0.1628057;-0.4501099;
1584543125;307168;840;799700;1584543125;307168;-9.888053;0.09097967;-0.5147533;
1584543125;325276;840;818187;1584543125;325276;-9.866505;0.1436521;-0.4620809;
